time	accelX	accelY	accelZ
0.0	-0.04349338667884497	0.15143129424172516	0.10702029902579069
0.005	-0.011152597747362561	0.24890057739704252	0.0636595413919744
0.01	0.032943975523671704	0.11418189161704083	0.06770948631673915
0.015	-0.0037784315562078563	0.06832826751284751	0.010006212744751136
0.02	-0.013071713372227036	0.18666399703475986	0.09498326384034786
0.025	-0.016209153628763264	0.1669783210993712	0.04815089121756838
0.03	0.026062053864334404	0.19377666715125963	0.10102624390201885
0.035	0.001573385620525775	0.21453361334457868	0.10947315801920514
0.04	0.02257467640803213	0.18604656297751804	0.05610098850562364
0.045	-0.013392565358819771	0.15978375965270192	0.14813022887398442
0.05	0.011942438540253737	0.1821687726304132	0.07737674538326392
0.055	0.03372206123925538	0.10338585754279786	0.16311144278679082
0.06	0.048033203828402996	0.08267827708278415	0.11146910728254002
0.065	0.004030039200384913	0.18254965795079245	0.0836760588802067
0.07	0.012013071446630653	0.12667610219824818	0.09315036774424013
0.075	0.06415545806035958	0.18300029231081893	0.15767890196063272
0.08	0.005605684182249392	0.21249492919654736	0.09803346760696266
0.085	-0.06576579437480123	0.22643640667433773	0.12449191059651163
0.09	-0.0033954868938674138	0.2234957907210178	0.1938248597072474
0.095	-0.007039699682015808	0.1726219642651754	0.0685534416449992
0.1	-0.04532222889982999	0.09848053937638833	0.20752969119791254
0.105	0.09810768182907562	0.17772090742987334	0.14001596478981576
0.11	-0.04274232686645717	0.16946759211317258	0.08478201416765799
0.115	0.16390633286996079	0.22006453086458516	0.1009537653443072
0.12	0.034082411953157685	0.20738859318740538	0.09779791342170935
0.125	0.03704280290047348	0.17289627588880824	0.0956854301959385
0.13	0.0329996949434696	0.11953620839022962	0.026399105627178537
0.135	0.044855460100479944	0.21148371382376707	0.17711363902905292
0.14	-0.02991741189749532	0.16832242267811903	0.11008888422017356
0.145	0.1779677858728889	0.17947626579464077	0.13711377280528142
0.15	0.12265582181647863	0.24574726732746566	0.024997506959528473
0.155	-0.00738739682748199	0.17791840102416473	0.09052544389766728
0.16	0.09448945589517889	0.1738648813627725	0.10928531416869436
0.165	0.12476021115417726	0.19674587137908317	0.22751085247133015
0.17	0.07854712817070869	0.2985716473428156	0.09358614714506479
0.17500000000000002	0.11437736674485652	0.2550513743145319	0.15010013553606502
0.18	-0.011504927570301166	0.20431474284776813	0.07940534876210671
0.185	0.0726699304528796	0.2641254913010869	0.17794548899583157
0.19	0.17463425032914126	0.17156939293340986	0.16305159230542637
0.195	0.07923802463139502	0.23244559522836597	0.15871074278402733
0.2	0.1152434913488711	0.1654051301618731	0.20506692075612362
0.20500000000000002	0.09631393445913083	0.17926942174843297	0.21785665714225824
0.21	0.019120845443912404	0.16168068799864888	0.06303973812134744
0.215	0.01003080705382052	0.2230027902754517	0.2361587718105274
0.22	0.03871921331178852	0.283370681369368	0.09214387049854689
0.225	0.012600956705574942	0.19392616343801464	0.14152132755347957
0.23	0.06810173598208949	0.22846938059219582	0.1655189312249838
0.23500000000000001	0.086596662311538	0.22906116742612506	0.09571938114520072
0.24	0.09322877722055957	0.23601419237383572	0.2583213444140507
0.245	0.10063336850091394	0.30064018338454324	0.21883189018189053
0.25	0.11403543332267407	0.20586809467426678	0.17442372146279225
0.255	0.036611583383181344	0.10609346619455101	0.14621961312940177
0.26	-0.006560713996863143	0.23981519609027732	0.16342200404556134
0.265	0.09772394482010316	0.19229195680295336	0.06566043327117066
0.27	0.14084229673165538	0.21443400740529733	0.19891804681726338
0.275	0.07269905714763757	0.144513116631545	0.16756927719535666
0.28	0.1310110558961551	0.14819448527856954	0.22668779071080805
0.28500000000000003	0.15632040156199353	0.0641457158430683	0.13750172093593324
0.29	0.16292453708320925	0.2315490278651705	0.27864300980989837
0.295	0.04439764071265051	0.15231211001853293	0.1447932034268795
0.3	0.10766437732546545	0.18681192174731528	0.19793336276802106
0.305	0.07962781939001691	0.1734625513993389	0.1380210143518112
0.31	0.20473738712100326	0.1958024040891782	0.2346667611079163
0.315	0.1807286056849695	0.2539427902533392	0.14549022510970144
0.32	0.15047327367252972	0.22947936205751737	0.20762832808101003
0.325	0.09340448877836617	0.17555490653322764	0.2017674857637181
0.33	0.19782923253642676	0.23443773772807	0.16656976502928883
0.335	0.21855164657148013	0.12377623127872135	0.10795142173918727
0.34	0.14030052751194444	0.27951679731491963	0.12550298364850215
0.34500000000000003	0.11417531266566268	0.1938780058742706	0.1894670829342017
0.35000000000000003	0.1494954877358073	0.23643979495332412	0.14749261275196063
0.355	0.05249818446081113	0.09885889188440974	0.24377008260243604
0.36	0.21487787388785734	0.17868983385504422	0.1501621208990145
0.365	0.08643970457434902	0.22578881364460412	0.20089412333449289
0.37	0.1315261445317582	0.13519748937455528	0.1314839345135778
0.375	0.07035178734515331	0.22736545078857065	0.2276220100993392
0.38	0.09913810687095989	0.22939756090840807	0.22040309825754908
0.385	0.08831363083172702	0.1451543988034931	0.2584032478367853
0.39	0.1813828178483573	0.14155447705597676	0.2634460769061977
0.395	0.023753262221444263	0.24628299611907523	0.13741134501907692
0.4	0.1752653256976518	0.2788150075241575	0.18117061986846283
0.405	0.18470460381094672	0.21387435163867724	0.12842981858148114
0.41000000000000003	0.21486311891537696	0.1276469045392431	0.14245088803113776
0.41500000000000004	0.180938776349707	0.1358768384470861	0.07780828568194596
0.42	0.12801988809298978	0.1173269639273315	0.14922104496587588
0.425	0.1221136462836074	0.11249373579590505	0.17146206601092318
0.43	0.06760730845847632	0.08653388914249723	0.2567069087984134
0.435	0.14819200228270277	0.07573030793632518	0.17931899904533488
0.44	0.18525969428528802	0.17377666379008333	0.12174265487014822
0.445	0.11702623412513288	0.16180054072596375	0.1434583413490609
0.45	0.14190921782362095	0.10291765467355994	0.2370041590974062
0.455	0.18245424221793988	0.2280179357843939	0.1648177918811553
0.46	0.18008826471980055	0.14482543549474777	0.1901192961789456
0.465	0.15739773555067174	0.21282671053218707	0.2048308309082813
0.47000000000000003	0.20487510749719465	0.2113466571660116	0.22628694026120225
0.47500000000000003	0.1565338603201698	0.07745332454728718	0.1286669590434405
0.48	0.10303068540606433	0.1630298830200627	0.2624698136797282
0.485	0.17864038822509715	0.15469064323676535	0.14070682150810052
0.49	0.16592042821415995	0.206999551979186	0.21808529162298568
0.495	0.1663615106506419	0.146291045172333	0.1253500508530681
0.5	0.08138998036198798	0.21671489147132147	0.18221787165547398
0.505	0.19778663397484653	0.1982724248738724	0.14972687249551372
0.51	0.1782248853331075	0.1416145607190364	0.13948509543285637
0.515	0.1258414235982076	0.1319052008332688	0.16843886645109177
0.52	0.16750496633697304	0.25724545183151926	0.1851149944544384
0.525	0.215492262543094	0.14487000444072826	0.14317925227649916
0.53	0.18859334473512515	0.14884995978672683	0.17716903609287568
0.535	0.14793244691579902	0.15505270279040378	0.21882571943947443
0.54	0.08257523718090821	0.09155813151806846	0.14044362527816956
0.545	0.18337113712272088	0.14805489659776053	0.16543298306561172
0.55	0.09558173640775552	0.17391356203291297	0.21305720126411903
0.555	0.16540446682425614	0.09538494875664341	0.18906381677174655
0.56	0.10172552828870936	0.14624181430329103	0.23003948954134404
0.5650000000000001	0.24339050221474284	0.18816270272246854	0.2729403800612067
0.5700000000000001	0.1882112685362693	0.12304238838159365	0.2223580137374444
0.5750000000000001	0.13149770038632286	0.22425603506051495	0.22514203584903567
0.58	0.21704646445193498	0.23315138709576955	0.13979847806404572
0.585	0.11350512119734553	0.15538512454752568	0.20567813111290534
0.59	0.1777591348591218	0.21630638119115866	0.17020836134018344
0.595	0.1783928528096312	0.24903575517963703	0.14039597964384604
0.6	0.11341322478237323	0.15108279072181063	0.16169053397920014
0.605	0.17603884543613882	0.11613638603455481	0.22556247351158262
0.61	0.09423186242451255	0.15337493756567327	0.16194816990701788
0.615	0.18193779474888913	0.15131537051806684	0.22461394986578984
0.62	0.14518807726087127	0.11626692154964227	0.1956305537716503
0.625	0.10752814022148781	0.1744413601685799	0.21571111693650594
0.63	0.15848741604300803	0.1297297557409416	0.24059522665972122
0.635	0.17516465966908615	0.14308597373862939	0.1606763616266077
0.64	0.2343850292075942	0.14386164984971087	0.1450162411793537
0.645	0.17356504618278767	0.12901191950976088	0.1508289549859595
0.65	0.19829762437282808	0.16756992180059943	0.17835826470967164
0.655	0.1841214000568496	0.12633199469317785	0.13983945134257156
0.66	0.23394809850792148	0.13155548122421096	0.24049717030436896
0.665	0.17452047247250776	0.12120135634262988	0.25370561103027456
0.67	0.19697345313090803	0.12961181734872046	0.21415076368253122
0.675	0.2607802117032028	0.132268680051402	0.24317373926218078
0.68	0.17278990222837415	0.031193206030042803	0.19599508411450833
0.685	0.1488180636208622	0.05772303435118788	0.136653160522886
0.6900000000000001	0.2276283655630954	0.18647728157361526	0.20802986583008123
0.6950000000000001	0.17242394230965064	0.026572325991325016	0.298209594723138
0.7000000000000001	0.2528824854167934	0.17243252742924037	0.17816769433776466
0.705	0.19819992774360176	0.21394236384453036	0.14547406850956296
0.71	0.2922397501706402	0.0811732191332584	0.2721970019261023
0.715	0.19355399189825026	0.06806195696961823	0.2327268099263515
0.72	0.1676753055850572	0.1364819213660426	0.23555702763807762
0.725	0.1790844364069166	0.19667505451245562	0.28261249315664516
0.73	0.22984205310799213	0.11234920030390036	0.10527439945563678
0.735	0.10191157033202246	0.08419778460844982	0.2147738430746384
0.74	0.1558383833713619	0.06593304996307521	0.23866204736994692
0.745	0.21889807262458358	0.15535294917651477	0.15954803393031083
0.75	0.24197773338898973	0.193884684595799	0.1626286014795343
0.755	0.2679836810600301	0.1610386423010133	0.20977667031621972
0.76	0.2723966160648399	0.14851791457589503	0.15562049416332266
0.765	0.08144739882823746	0.11191718052448991	0.13973051083440352
0.77	0.25485158030835164	0.10990446099360227	0.19280145288755723
0.775	0.20441106204515666	0.12111253719346375	0.1577073149143738
0.78	0.1860230611943206	0.11755215030601449	0.1703783653800895
0.785	0.19396288654371202	-0.027265259787193755	0.17341592947567608
0.79	0.1869545404886583	0.14636896190808107	0.21681680599199685
0.795	0.23453533279717037	-0.01519520246965124	0.14114340507209436
0.8	0.15715300562802145	0.06982083602219585	0.2555406530900265
0.805	0.23863141158655993	0.07524859257131172	0.22702686764806074
0.81	0.14327020205382796	0.13583925876596636	0.20133727463641185
0.8150000000000001	0.23049170069609634	0.14364471261959602	0.14377560897840908
0.8200000000000001	0.18588887704058088	0.214828163396439	0.0557694580678349
0.8250000000000001	0.16148744993118128	0.13377688190232476	0.1585599372168952
0.8300000000000001	0.27454010549553104	0.13006698940699707	0.2666694075893713
0.835	0.1849280937052285	0.055208064833142945	0.16785692414487047
0.84	0.1672068409239655	0.06951112208484021	0.20734788295195694
0.845	0.2144167188883406	0.07155767157285983	0.2383707783055773
0.85	0.08974610260197483	0.06702112189507518	0.172424417476764
0.855	0.19671672869415263	0.0674564012938677	0.17299362903143733
0.86	0.15690835809343084	0.09027436608707232	0.18725738206066622
0.865	0.1531940565641985	0.1772274651197901	0.12536788516340747
0.87	0.13978189142484856	-0.05042755737363004	0.149686059768554
0.875	0.1933952308574972	0.17114159363859666	0.18555935884399066
0.88	0.20022652185750303	0.09487017226364175	0.16735385876123945
0.885	0.19205107969779556	0.04692821024478652	0.16552555029465493
0.89	0.09220719527699649	0.11878155625614017	0.24869702418813383
0.895	0.17168996038374396	0.0832711851319635	0.2077374603188316
0.9	0.1907912126489172	0.09711831086126446	0.21898889435672567
0.905	0.18673837019739836	0.07487312367652059	0.2100215683849825
0.91	0.23741206118670674	0.003246910090821384	0.18468307848301713
0.915	0.18403783843177718	0.06238014330711985	0.25291205838040265
0.92	0.16950783875388048	0.1416111758977919	0.23080294066670975
0.925	0.2427624939020997	0.12363172825790912	0.19119549353942733
0.93	0.22870565737938228	0.08774543516163877	0.23668040938226761
0.935	0.2497218661915434	0.005352935685504795	0.21804437900694418
0.9400000000000001	0.1890193626982279	0.07245325835643537	0.19029967880327883
0.9450000000000001	0.2497890614759603	0.07454002181199071	0.1484408331964177
0.9500000000000001	0.05503107830305501	0.02334589826095223	0.18494365977886948
0.9550000000000001	0.23409305921193913	0.05982158210004322	0.06380504832204822
0.96	0.0648245995194798	0.08780933084193962	0.15391545523380737
0.965	0.23790514112100491	0.06504990954924413	0.11312634956091544
0.97	0.18765584967063215	0.08991334618826846	0.20437271342295363
0.975	0.18397415062631137	0.06773253293692398	0.1301576589371147
0.98	0.19131043635258294	0.11087043232190211	0.09322353076730787
0.985	0.2327918133769646	0.03547353102993576	0.13431578661549365
0.99	0.2340040820655578	0.026320474531712892	0.1374547198449818
0.995	0.2193670386602831	0.11776954430110591	0.18728298417826186
1.0	0.20529964533874057	0.10514954996833292	0.14282454088247434
1.0050000000000001	0.2411968056539988	-0.04594316024848237	0.13089571120432936
1.01	0.2561299367343288	0.03967438042514977	0.11231983481350719
1.0150000000000001	0.22191544360380894	-0.04711570934502725	0.12366213042716458
1.02	0.1787224518626948	0.04341523343035482	0.13401614005519247
1.025	0.2579666560241494	0.004484105846293291	0.13642253996092082
1.03	0.18826785830511866	-0.020098337433379923	0.22438377161800316
1.035	0.22994405330486622	0.1957534551246364	-0.011556125331483619
1.04	0.17444109097951033	-0.04733769397900686	0.23726627862990554
1.045	0.242593614509786	-0.0021302586825949037	0.0794170780915993
1.05	0.15335431712461628	-0.020904793830306346	0.09846217281383828
1.055	0.21708922641814685	-0.10639357959276916	0.09749058434074367
1.06	0.2336051612820982	-0.08459707163914627	0.13312922446875175
1.065	0.1597317849602621	0.007296229105524658	0.07754069127808677
1.07	0.13090515572418943	-0.029636715203917977	0.08041869457038417
1.075	0.1994745397698532	-0.09387688731213804	0.13373792232503662
1.08	0.2638646187488616	0.05441480280057435	0.06291797316442829
1.085	0.15142515088502168	0.06946158783229207	0.09005582486951985
1.09	0.20495734506706637	0.017372591841466743	0.12888889212752283
1.095	0.10108628499536523	-0.028105090212810872	0.18024199264270843
1.1	0.192055085808845	-0.033953908555087106	0.13679988166304496
1.105	0.14126147867646438	0.03783640895297179	0.17207409285202951
1.11	0.171760628903857	-0.027316943707657793	0.20325258519195002
1.115	0.20254649795602528	0.014251876597718378	0.12561936144876054
1.12	0.20510702971659145	-0.0542611578079229	0.07626931256617517
1.125	0.30166083298102153	-0.1185487153020385	0.16190079376997454
1.1300000000000001	0.12475788621649621	0.02897122799717075	0.1049957854137912
1.135	0.20400093108638706	-0.053633027165673405	-0.007997362146608386
1.1400000000000001	0.1260351732199324	-0.010527888884576946	0.11204510773522472
1.145	0.20539707778889066	-0.012490511691493095	0.0701030052393998
1.1500000000000001	0.14763003053145343	-0.028538146197223665	0.1404769953983343
1.155	0.17323333141679081	-0.1493998101573606	0.09994525349055079
1.16	0.13124461647326638	-0.06553074128198691	0.1294776659394601
1.165	0.14172998132058257	0.021546561844245304	0.06058114701590134
1.17	0.24131537600831354	-0.028584019460934574	0.17682225559467496
1.175	0.0962548021950611	-0.0916202567112645	0.13038315759409258
1.18	0.14321650000280034	-0.06886870596793832	0.16237148472526702
1.185	0.13343416171612638	-0.06334975726522223	0.0879667293128019
1.19	0.22048603167350683	-0.0254184998632671	0.1037337416787745
1.195	0.12303873559446513	-0.11578132176413417	0.19045313432779887
1.2	0.15863775836339206	-0.02776770334696692	0.11165722698981105
1.205	0.22767216119995765	-0.07413131411553872	0.15205112267103088
1.21	0.18893007859537553	-0.025886183968307115	0.044460688300113946
1.215	0.07965145302294692	-0.03382293853380873	0.2117771104858807
1.22	0.16462925127691688	-0.09303014077063068	0.07629949360588385
1.225	0.19045079732551126	-0.044247066457917004	0.021328862559255188
1.23	0.20099475889446242	-0.05614975264728925	0.14629149158491178
1.235	0.049596229124729274	0.00782634840910694	0.07760328682751559
1.24	0.15079250823515605	-0.18347340763047898	0.06439908254147275
1.245	0.1155677645812771	-0.14331553284760168	0.07743162680932839
1.25	0.19870193527303426	-0.07583275317294183	0.07217538500731076
1.2550000000000001	0.20327609901221377	-0.15799883580598395	0.13741801532242914
1.26	0.11668501286442205	-0.18135416537433519	0.029002549740097895
1.2650000000000001	0.1514060100043646	-0.09016109901014749	0.11348062741670151
1.27	0.13924453063172876	-0.08973389459117767	0.0901216609899141
1.2750000000000001	0.1214715680314894	-0.07131181077489926	0.018922694725152525
1.28	0.13132310552286383	-0.08479473883779456	0.08665268206128861
1.285	0.13173037426645237	-0.07261528838626685	0.15512404127835847
1.29	0.1750342018094564	-0.050209820868198425	0.0043935119338675555
1.295	0.16673116972275287	-0.1404801589935349	0.10035166087614808
1.3	0.18809857678069616	-0.1722670491004849	0.03161929163451154
1.305	0.1830268360486535	-0.12776008688678198	0.03015186914334647
1.31	0.06818590021563	-0.16084588009665252	0.043965396821705
1.315	0.06171917569442085	-0.0824307268569394	0.01612851600985813
1.32	0.2073892757329014	-0.09505545825523384	0.11336458881907371
1.325	0.15349658744538275	-0.10065902376917579	0.07023963663990912
1.33	0.07058793344061029	-0.13231209970699492	-0.00644853573803169
1.335	0.1061818742634	-0.15974171249027116	0.015210838950268014
1.34	0.18715961865451158	-0.1586319307348334	0.05877571241903511
1.345	0.12341698687576408	-0.039641400745867916	-0.014827142006400763
1.35	0.16389149511768658	-0.08690964920294678	0.0880753251704367
1.355	0.09135166839470085	-0.06794807021785496	0.037746648320676326
1.36	0.07629820712097624	-0.17437177044777413	0.07198674881710387
1.365	0.18767711676148396	-0.14813537077892797	-0.006066055335681775
1.37	0.11545489252991348	-0.04699747022408558	0.03860870202315712
1.375	0.027776538071696763	-0.147256859164881	0.01984210930718771
1.3800000000000001	0.1174152243551424	-0.11896114881196915	0.004344212752379235
1.385	0.042161609649985776	-0.1539113994172548	0.040987884899646554
1.3900000000000001	0.183684518278143	-0.06051119952798975	-0.0035760322756013332
1.395	0.16611913021151742	-0.18792961012471288	-0.017670282099701895
1.4000000000000001	0.09255503522709829	-0.11865208156038881	0.07715634469443053
1.405	0.05282374614704022	-0.07001669619659552	0.03944674015515651
1.41	0.0981445800028212	-0.2245061642620006	0.026364215165876823
1.415	0.12750405942527113	-0.06692233651684934	-0.048542335066847145
1.42	0.08864541500375574	-0.15983244430849877	0.011599068482329312
1.425	0.07984405379407641	-0.1566184037076741	0.028384622110096357
1.43	0.16658169845059956	-0.12413352438889302	0.04904896848118641
1.435	0.0996908426373613	-0.14627893344078038	0.05283698221977878
1.44	0.06320593944585903	-0.14229887677912292	-0.07613615113081112
1.445	0.028671050035479012	-0.22172204588127803	0.02600286485918853
1.45	0.0367236103552098	-0.14051206691504575	-0.02768759222465037
1.455	0.13533912395485828	-0.15763017998410664	-0.08260376807237005
1.46	0.05569315619819776	-0.24113094787499828	0.036629614842108096
1.465	0.043858401772209864	-0.07561895060756359	0.012910135426837277
1.47	0.0767705551085854	-0.28422334708210306	0.09566479338804215
1.475	-0.04329136343462314	-0.23800533935439427	-0.07788849880396624
1.48	0.015565235591194153	-0.20720396884535336	-0.03134408348021183
1.485	0.08273332310900312	-0.20331118197650597	0.0026436770933566944
1.49	0.021870893349743473	-0.14974255655968666	0.047275698774338834
1.495	0.0696948598206742	-0.14374466873687278	-0.010710161304666788
1.5	0.10518153650910486	-0.055202167004313435	-0.02239328791597565
1.5050000000000001	0.08583312123259751	-0.22255159995864005	0.02053845010912954
1.51	0.06928448020008865	-0.1431704585909528	-0.07285609276144973
1.5150000000000001	0.06371742558942059	-0.21679777678215056	-0.050395471790617465
1.52	0.06571703756202685	-0.1429170981284312	-0.03274778984013113
1.5250000000000001	0.0694324047257578	-0.16454740460957623	0.0008002277438712742
1.53	0.08880186807755877	-0.1749394137910165	-0.09932550823678186
1.5350000000000001	0.09753549336940469	-0.06053868945504921	-0.026154596905901425
1.54	-0.057171383693400794	-0.24891128003519924	-0.07866633925269113
1.545	0.039464019814950055	-0.19528654796784534	0.024108802999565308
1.55	-0.04439332723720611	-0.2235151088396752	-0.022884322691612644
1.555	0.0977701265753915	-0.10556576559801176	-0.0468816644335706
1.56	0.08129788486368915	-0.2018747047541092	-0.12747714639566696
1.565	0.0034426678269776564	-0.20393959887028684	0.008060488674335623
1.57	0.03980558282489025	-0.11555855811727425	0.001180235866091419
1.575	0.03615167959740794	-0.18802964581519024	-0.0807430273077282
1.58	-0.030208728601510602	-0.1857801850894672	-0.05098535134351684
1.585	0.04306480485357232	-0.13906495148832373	-0.00011200066099150904
1.59	0.004007432615845831	-0.11700831913139832	-0.07769876358426478
1.595	-0.011609135229490617	-0.08592715826370283	0.0004627298274227226
1.6	0.0019350342153402686	-0.12236905583601035	-0.03123081161403058
1.605	0.03380189052902198	-0.19056841642440578	-0.04524269097053529
1.61	-0.032239437032745386	-0.2256697556557199	-0.021079196829874344
1.615	0.0007957679998899791	-0.19321034263742337	-0.036549320044132534
1.62	0.048563856745473304	-0.13221881253941817	-0.10115064387439968
1.625	-0.015338494572728689	-0.2054669029706514	-0.06223902978254468
1.6300000000000001	0.010937151242081212	-0.06439493897698619	-0.07485410501583446
1.635	0.01694723592871692	-0.17650143492715942	0.016374485197154592
1.6400000000000001	-0.0590409488266639	-0.2160679451438009	-0.05238037593401025
1.645	0.017327725408382434	-0.19078578517235506	-0.010937991442087812
1.6500000000000001	-0.029928227488161242	-0.16622555835288622	-0.11365305048682106
1.655	-0.011691128028001627	-0.23794355041822943	-0.029079800055615806
1.6600000000000001	0.1514357579429753	-0.2638486234878526	-0.10771726286824118
1.665	0.061789991827725536	-0.1620976513061198	-0.08558173171951493
1.67	-0.0803688390022577	-0.18288284312282474	-0.04566900166707004
1.675	-0.01828439003377627	-0.1581885349982	0.07013538262411853
1.68	-0.026788781796670623	-0.03792944473555748	-0.008885677832614056
1.685	-0.00046166763039525317	-0.17066577307445238	-0.020879797997952212
1.69	0.0654746652614198	-0.17834109255131522	-0.028438883017711886
1.695	0.0057096107459790844	-0.19877023852204087	-0.10891998416356313
1.7	-0.025799247150459143	-0.1320662796720954	-0.10511175428056234
1.705	0.04057017758799647	-0.10889678187182972	0.0015103489631666106
1.71	-0.0750907724153809	-0.15475768116814667	-0.05694916383121083
1.715	-0.12431519056804265	-0.23480795226670928	-0.02126070541043807
1.72	0.07107706567811913	-0.14810154402663772	-0.11697980179915948
1.725	-0.035224362208138876	-0.10106132733598983	-0.014450080946463016
1.73	-0.0869141912930549	-0.11786065417146921	-0.06474986581421133
1.735	-0.06792338657238856	-0.190069720716808	-0.018898237654310514
1.74	-0.04665147383359197	-0.21309656714252792	-0.09068375974145781
1.745	-0.03016178727211305	-0.11764888076798534	-0.05739734683589516
1.75	-0.03486395327926251	-0.257357437490106	-0.08379305810339253
1.7550000000000001	-0.005230903629909984	-0.17496724281817877	0.01483527494347607
1.76	-0.0010787683667775397	-0.1162320553497034	-0.18362947043710615
1.7650000000000001	-0.1557217750431898	-0.32348195286286363	-0.1412795419041627
1.77	-0.06584003815067657	-0.2227213482034459	-0.1412874835024178
1.7750000000000001	0.02857987935319895	-0.27815125398316376	-0.0711646719040551
1.78	-0.04004266135852097	-0.27994339598467904	-0.13074564431289631
1.7850000000000001	-0.1334763364099984	-0.2755651742769301	-0.0907728813431898
1.79	-0.07887622896170819	-0.1931656941609884	-0.11633656389716299
1.795	-0.04626917458120052	-0.15629859758497772	-0.17726444738585942
1.8	-0.021833019317307342	-0.15441962601447867	-0.1334749177234999
1.805	-0.05869055133670328	-0.10908414090383423	-0.08123540526091462
1.81	0.034825341326777004	-0.20981519781027438	-0.12694839136709768
1.815	-0.0498757681267594	-0.17087330438692294	-0.1829559570904671
1.82	-0.15425159629767154	-0.23758091661098046	-0.21548564279047883
1.825	-0.10347538316592209	-0.17673929124933008	-0.0887605519800751
1.83	-0.08230149768157026	-0.25333606214231236	0.03038013433370497
1.835	0.008310849375478935	-0.2245500410810076	-0.08690150447321283
1.84	0.08164146160143941	-0.24792067167082588	-0.10801348948297682
1.845	-0.10401988121715139	-0.1390852384895407	-0.068241843561033
1.85	-0.09405509208770398	-0.13145813912062432	-0.1572287490956131
1.855	-0.11605985820479384	-0.1922028858318917	-0.1451029743553317
1.86	-0.07854563708669926	-0.2158843460572821	-0.11682194794882404
1.865	-0.02130116476972964	-0.26015997230862825	-0.14422485985880656
1.87	-0.06944568032585925	-0.14282662755499978	-0.12542077363973114
1.875	-0.10251631953549	-0.20861463685615825	-0.046603441435294185
1.8800000000000001	-0.06402011298988827	-0.1725286602657194	-0.10629172647541599
1.885	-0.06031026072888422	-0.17763583891659263	-0.16715252761806842
1.8900000000000001	-0.07685752594874384	-0.16104399245751588	-0.06692346730951294
1.895	-0.03739159709241717	-0.10457918604306653	-0.1536203214165313
1.9000000000000001	-0.13595295743716637	-0.2739529589857102	-0.160986508065172
1.905	-0.2000560405619547	-0.1939911217761532	-0.11297028735190036
1.9100000000000001	-0.032662389675002845	-0.2545078243827563	-0.12427725437517281
1.915	-0.06832609734388005	-0.18187163568693276	-0.12096866088134134
1.92	-0.10362428908091645	-0.20141336659291809	-0.1182994018689681
1.925	-0.13232352856697374	-0.20302069085492963	-0.11483429734194615
1.93	-0.09475645445844855	-0.16662756591578776	-0.0570962479938308
1.935	-0.10230204535387769	-0.2494021834827246	-0.12450316647940293
1.94	-0.07270826811356539	-0.19867703447890087	-0.2098559115100776
1.945	-0.10359079628002955	-0.2722203429124021	-0.05026167798606723
1.95	-0.09413278357029972	-0.25491445001060314	-0.13306220082743384
1.955	-0.13008907178471163	-0.17081116821454748	-0.14153650065836998
1.96	-0.16005624610023306	-0.2024827139197387	-0.03547568500434463
1.965	-0.21756584802695547	-0.14193223292546042	-0.13592908086458247
1.97	-0.08308686325804035	-0.2120126387911575	-0.2045188613742326
1.975	-0.0902481186985459	-0.07407508297430725	0.004165502235969065
1.98	-0.07172777062943943	-0.17473642257788097	-0.16768943994390165
1.985	-0.12104409302378066	-0.20143161384939007	-0.1609097245225028
1.99	-0.11915970280469182	-0.13080357316049324	-0.13250911138033633
1.995	-0.23297392854426677	-0.1284274540081779	-0.14066227313020166
2.0	-0.12523623007048487	-0.15555802613261127	-0.05320160710583212
2.005	-0.19112682310496776	-0.19056194169781127	-0.16020598671280545
2.0100000000000002	-0.11160029907893933	-0.1341283909143996	-0.16622277981348219
2.015	-0.20146581455283225	-0.14625740697395626	-0.19114667256916038
2.02	-0.07201430968540745	-0.18554219524545093	-0.1534382555173921
2.025	-0.050778535339352435	-0.1896969437183653	-0.137086606731733
2.0300000000000002	-0.10715466682738942	-0.12696465627666684	-0.19179718161610068
2.035	-0.09562190533341652	-0.22505475976597852	-0.04163940098934821
2.04	-0.16012287978465364	-0.25828215269117666	-0.15460881375227672
2.045	-0.10381962562350415	-0.21627004509597436	-0.0925301571997112
2.05	-0.06989979795105097	-0.19587766968205328	-0.17295684586804744
2.055	-0.2701223004725347	-0.2432866055476001	-0.230711698260606
2.06	-0.08499377273101698	-0.10948971759750696	-0.222790476202669
2.065	-0.07488511211541118	-0.1417908994156713	-0.07750176907226906
2.07	-0.016719438511000412	-0.22138570256282253	-0.08013354978344026
2.075	-0.13310713531469817	-0.2918690906548491	-0.176729261694828
2.08	-0.1815529532107721	-0.19952442824745847	-0.14428071976195658
2.085	-0.17239062826964507	-0.1522207786438118	-0.07389661425581931
2.09	-0.04660321976860719	-0.18932525304616493	-0.18635048125056966
2.095	-0.12910938288386503	-0.18652173254277826	-0.22400268096222115
2.1	-0.1842299488399712	-0.14595478706428258	-0.13284832481411982
2.105	-0.16846286380996078	-0.17230380326998632	-0.1595910708415849
2.11	-0.13476316530409901	-0.16083166582846262	-0.22960007105294966
2.115	-0.09325306627493074	-0.1668868586231012	-0.18560187148658777
2.12	-0.14041408274861958	-0.0701653578452234	-0.16139968352954645
2.125	-0.2533749095742094	-0.17480449579706756	-0.1879402725999767
2.13	-0.14000780790257	-0.2403772936663679	-0.1058776454480813
2.1350000000000002	-0.06013687401429252	-0.19491599382995653	-0.26231840553212793
2.14	-0.2642726355775765	-0.1689474261298188	-0.10309682805247868
2.145	-0.19400114544723773	-0.1840869612215431	-0.09991250871017107
2.15	-0.17157285447270224	-0.15951444152366473	-0.10552952615028074
2.1550000000000002	-0.03213419008106927	-0.1905148455308421	-0.1307854324428724
2.16	-0.135442822092786	-0.10668349758008819	-0.15084951928821788
2.165	-0.10590767045754933	-0.14341917728067716	-0.2853763160900753
2.17	-0.2004920463624527	-0.1602974894400024	-0.2396967970938479
2.1750000000000003	-0.13923028512330488	-0.16444149807405917	-0.18192345938119941
2.18	-0.2680558975273528	-0.13068652995267308	-0.17310780388599734
2.185	-0.05090500536929245	-0.15772177453616462	-0.212890501605623
2.19	-0.2171435206198713	-0.18284614186062761	-0.18996034371251713
2.195	-0.12484889076861502	-0.13873746417038726	-0.20753144623713632
2.2	-0.16135797000688953	-0.1461293127514519	-0.19382287883199392
2.205	-0.1884615475481537	-0.12265997546692387	-0.17084117430539122
2.21	-0.16211886579080836	-0.22359075659956246	-0.08457641549349895
2.215	-0.22458879661792455	-0.15201814608275963	-0.15628677075393355
2.22	-0.16023773604405814	-0.1187874641165264	-0.23843835430724789
2.225	-0.1535524674203547	-0.10634518704083049	-0.22557490084193732
2.23	-0.08247080211739041	-0.12747590127718506	-0.12062576307675897
2.235	-0.22542389776055333	-0.13886303966229727	-0.17076023478340768
2.24	-0.1716237053163066	-0.07609323278366271	-0.19235563171626074
2.245	-0.17104863311755183	-0.18906394330208653	-0.11531755838358766
2.25	-0.1797115072771287	-0.1461372133845521	-0.1823513216564338
2.255	-0.17789529406256438	-0.124921049871898	-0.15846188701272215
2.2600000000000002	-0.20271957257623274	-0.18409976927715663	-0.24649901445878705
2.265	-0.15699185334395455	-0.1895808837383882	-0.3351033803099842
2.27	-0.22130055095744294	-0.08095325529109837	-0.10541202805930139
2.275	-0.1897084029354129	-0.04459877033886331	-0.19900760193903655
2.2800000000000002	-0.20659922395397884	-0.19104355819144503	-0.27320667197028514
2.285	-0.1334113879980458	-0.15708029513502894	-0.12796159973801918
2.29	-0.24021210629373776	-0.03336919627416725	-0.18734508127928215
2.295	-0.20536169929080872	-0.04809822775383607	-0.27289125510727746
2.3000000000000003	-0.19323197125087452	-0.13154271438580672	-0.21376979686149095
2.305	-0.14367019880206378	-0.12786691343190112	-0.09652016546757455
2.31	-0.25829189403579317	-0.05760965695646259	-0.12329686762344143
2.315	-0.2544498620237623	-0.1619919017726269	-0.2432049104733351
2.32	-0.1520420359755372	-0.14532211482997964	-0.18345218904570082
2.325	-0.17157650947254438	-0.12639300961673358	-0.2587519659297323
2.33	-0.19255738470170747	-0.17111144920929983	-0.287810341688972
2.335	-0.27297031759843376	-0.08737571152726108	-0.20721341833266527
2.34	-0.19587535700202144	-0.14437756868424662	-0.15161811653789162
2.345	-0.18088544673047607	-0.0954134852267872	-0.1912381393965018
2.35	-0.21544504677577217	-0.11606665006271925	-0.25547236742413715
2.355	-0.1575854786005222	-0.050325214694607934	-0.2438991832747882
2.36	-0.1983918717963513	-0.10278832990815628	-0.18653579205140233
2.365	-0.18776087201697855	-0.06620997022917499	-0.15086448467655134
2.37	-0.17764134102713208	-0.1511658060475961	-0.23004297284076086
2.375	-0.14663104192189622	-0.15776567152118995	-0.1362255099426116
2.38	-0.18434715043190053	-0.003909820614394946	-0.23666467372847502
2.3850000000000002	-0.18861114954407948	-0.05636104230019328	-0.1626451844295471
2.39	-0.20541885377789776	-0.0066543137687114645	-0.2780202373559804
2.395	-0.2927664794263301	-0.08877340866392189	-0.2238150130655617
2.4	-0.13545207269127316	-0.054624331667337954	-0.14276405876357406
2.4050000000000002	-0.27070190482630635	-0.07306822861114559	-0.0847534741560728
2.41	-0.15438587514755997	-0.04599150623378831	-0.17106428544749092
2.415	-0.15769806918468832	-0.007253672025093499	-0.2099077805786316
2.42	-0.26282466774710295	-0.053528338701500866	-0.15881265111414905
2.4250000000000003	-0.20631197644424115	0.008268891134150455	-0.10388169148499055
2.43	-0.1904342197815128	-0.0674615511785098	-0.17327252125202508
2.435	-0.3071598717578627	-0.0891692067784821	-0.15395141156566192
2.44	-0.21434449451004192	-0.10465074789168374	-0.24742340720251887
2.445	-0.2537011884293865	-0.06277841240871655	-0.21963666527154918
2.45	-0.2191983681171412	-0.17103561007299412	-0.13621865573409775
2.455	-0.32621296753345314	-0.16034748912552402	-0.20743237163553171
2.46	-0.12089919337526069	-0.09238296745823199	-0.15493199875719776
2.465	-0.19106835553845716	-0.13667536617644643	-0.1885764687133169
2.47	-0.27813870242695704	-0.02864867709163929	-0.1954386287795088
2.475	-0.1663665994337712	0.024240577718040085	-0.19396334044225566
2.48	-0.2218246085069963	-0.12140269044446386	-0.20056801079688047
2.485	-0.07399346512050609	-0.07702354238279065	-0.17209221612424452
2.49	-0.15112289923325578	-0.06327145689340193	-0.24739628859610296
2.495	-0.21974309390292002	-0.045468617920343055	-0.21263262917866746
2.5	-0.11756262839306414	-0.0051341481197954425	-0.2310022053132955
2.505	-0.17667738257733323	-0.004791124948654607	-0.2085096995192621
2.5100000000000002	-0.23794220563431265	0.02906569125795111	-0.2674302096426715
2.515	-0.1766022055547286	0.026818034436940585	0.0061104779160494616
2.52	-0.18425161940400944	-0.06367573810169416	-0.1706277429077823
2.525	-0.19696054166141527	0.04323544146316411	-0.2663746718306664
2.5300000000000002	-0.25487059923411703	-0.005339051780675293	-0.20844407106214424
2.535	-0.16641077570552182	-0.012566309550234588	-0.09505541214263066
2.54	-0.22324372492298455	-0.02536243166515805	-0.28184983494243776
2.545	-0.17604264370157283	-0.046348887300143436	-0.2171851756780569
2.5500000000000003	-0.2388952244470739	0.04816483714805061	-0.18894221145405338
2.555	-0.19190755524850575	-0.04714657506991261	-0.11189900263225804
2.56	-0.20489118014478092	0.004171052875712924	-0.1841937434498554
2.565	-0.23623987697680898	-0.027912032972105837	-0.10280007009132607
2.57	-0.17742417351613157	0.03249383773831656	-0.24399314005960027
2.575	-0.19539675959668795	-0.07506531963727259	-0.1269659488997534
2.58	-0.1262740128927809	0.007380577776397675	-0.1709280829725958
2.585	-0.1755607079980921	-0.013250454570410429	-0.20908280285693776
2.59	-0.22675580494941244	0.00916180811685886	-0.13100915245367728
2.595	-0.13022628519176316	0.01109993422260176	-0.26390893074075517
2.6	-0.12752302285340136	-0.02395573830632476	-0.1627089806619645
2.605	-0.09382474598581789	-0.08439500747842245	-0.27219590580077174
2.61	-0.21659296928763228	-0.09565054836225467	-0.15973885144650474
2.615	-0.16428949039854088	0.07368991228676179	-0.234491732945486
2.62	-0.132447392989211	0.05426978657871516	-0.18749047379429806
2.625	-0.11133711441317577	0.09131937310358847	-0.2607256479337757
2.63	-0.3016849091361012	-0.046925997532551486	-0.23437580869141286
2.6350000000000002	-0.20317172158238217	0.10377097832616793	-0.15868756896976194
2.64	-0.19631790268591004	-0.005313744012760043	-0.14285577094754276
2.645	-0.262362142161199	0.035496383089584485	-0.10922459617435085
2.65	-0.19625087637158392	-0.0037477934820458417	-0.21327242849226546
2.6550000000000002	-0.18759032383521154	0.03815972354000664	-0.22278732010672195
2.66	-0.16845610986713905	0.046016488582118605	-0.16237237694644574
2.665	-0.10980531787025541	0.0384978209529933	-0.17530006771671683
2.67	-0.16694923260607228	0.04268520729917158	-0.15179205535899498
2.6750000000000003	-0.1982389268606825	-0.0028854041066079146	-0.2120606414909037
2.68	-0.12938538792314216	0.09491685207094262	-0.16699601740641795
2.685	-0.23271488713398603	-0.015507669108304555	-0.1631373340125601
2.69	-0.11566580689101838	-0.027802530504358106	-0.17206562040966278
2.695	-0.2103024105702847	0.0592635425575611	-0.2092055651238795
2.7	-0.18435013321500593	0.07470313245054255	-0.1519981514075211
2.705	-0.2445564170001128	0.10937887912615038	-0.1872748624056907
2.71	-0.2945175270422453	0.06184067879028567	-0.1378560480719127
2.715	-0.18054508773092395	0.004005239568978258	-0.17736891286352618
2.72	-0.20205472116390794	0.0009733898529509927	-0.2263014492897053
2.725	-0.2503231390353598	0.0818083938540598	-0.07946384332425703
2.73	-0.18542446605558174	0.015242045022528967	-0.0957438484910798
2.735	-0.1320124006896809	0.018219663382495224	-0.16808383228474222
2.74	-0.18657414005965578	0.09460881353437146	-0.19873179160144663
2.745	-0.09915680577740565	0.08716448585172551	-0.1369986539393427
2.75	-0.1665414787759985	0.06992899115515137	-0.22464726431840434
2.755	-0.17679483066204865	0.15009543471386216	-0.2613315103815599
2.7600000000000002	-0.19007606753000222	0.016244780446935184	-0.23509969095452332
2.765	-0.21996199589094237	0.09820229335531178	-0.10104644898570182
2.77	-0.18116831770881597	0.09401952994256416	0.00375212915495185
2.775	-0.10079110464613868	0.030576450185175262	-0.11857653794407855
2.7800000000000002	-0.21955583302835957	-0.007586363960454104	-0.08787417617575286
2.785	-0.18892587936859184	0.04396976155956725	-0.1357131063668838
2.79	-0.07990757014999025	0.13869967010785	-0.15876543550726857
2.795	-0.17726392317795198	0.06486524197061413	-0.10172874143537734
2.8000000000000003	-0.12142623968820301	0.08921129524622957	-0.12859375335879197
2.805	-0.17306758733079902	0.2292276794622179	-0.1758731421345136
2.81	-0.03506660745463097	0.06811496209422557	-0.17405166827856716
2.815	-0.14479710089861955	0.11687660401052127	-0.21251775263375397
2.82	-0.13275020823479708	0.1651483251018312	-0.0720780763090231
2.825	-0.15208836052469857	-0.01658500445738527	-0.1317423910708841
2.83	-0.1241252106867202	0.02920650056826074	-0.08921760654462302
2.835	-0.2343982246119209	0.16964157785497297	-0.05482253902561149
2.84	-0.09660488803018898	0.1242126296455014	-0.16385375825963028
2.845	-0.20450662018980653	0.1019319018661952	-0.14212092670968696
2.85	-0.0694624533155776	0.18102891343648975	-0.1264354828380317
2.855	-0.17886337172001499	0.050876879927593516	-0.14047009819784703
2.86	-0.1624067629665237	0.14903870739072012	-0.18143574240243548
2.865	-0.18122973404553883	0.12362845397707029	-0.06437503758031042
2.87	-0.25395345991847357	0.09873345571577913	-0.10692214319095761
2.875	-0.24284239575119373	0.0016552504827110903	-0.20094656345582534
2.88	-0.11761786366683888	0.15593014468544003	-0.20893743706148457
2.8850000000000002	-0.14004935862180784	0.1661287626925655	-0.15009045408542004
2.89	-0.07798578225915587	0.19215473255327353	-0.12864642502305365
2.895	-0.1569381031330679	0.08502660963803212	-0.15697992353173043
2.9	-0.16155115414596216	0.05002558805558932	-0.20163041563269551
2.9050000000000002	-0.15940201246832272	0.16350562783756054	-0.13899221187547672
2.91	-0.150055934555188	0.22579519766474018	-0.09367588241227524
2.915	-0.10795629113096444	0.1860864933637682	-0.04972415804589189
2.92	-0.16615947557441085	0.14052927042955463	-0.12167530681426385
2.9250000000000003	-0.07323299769794968	0.09014923865466191	-0.03987126498945212
2.93	-0.08454751317843537	0.009462106113222207	-0.08170595322125093
2.935	-0.21514776322242518	0.09614715052561623	-0.11035626195508288
2.94	-0.20655147531801743	0.14892071149867708	-0.09599627287882284
2.945	-0.08567498474611895	0.08554386627375624	-0.1269146364080697
2.95	-0.05548633326464053	0.15371179282152755	-0.03133644406452457
2.955	-0.11216546208871239	0.18810982771178547	-0.1765082490920094
2.96	-0.17430166534067223	0.1555688279494192	-0.10780324262507246
2.965	-0.18180239820339641	0.0666522578906561	-0.08581719321900995
2.97	-0.12707980040731212	0.14355179112850314	-0.035921282970175064
2.975	-0.12919788904331345	0.04628267631074276	-0.11142627136832414
2.98	-0.06270768147605736	0.05898737419595901	-0.08365814596521315
2.985	-0.12978916543792482	0.09825272212377903	-0.024926334428469837
2.99	-0.08118877329140005	0.15252429880938428	-0.08961163873735484
2.995	-0.04754787873708306	0.2348368313296518	-0.1147626370612113
3.0	-0.13346885980228476	0.13913711301473938	-0.04123926315820947
3.005	-0.09767963786262673	0.17949289995861492	-0.10854387961406593
3.0100000000000002	-0.17477326302817134	0.1294910762408971	-0.04125104257415416
3.015	-0.1520757582383431	0.12536762044522148	-0.1307741541787705
3.02	-0.18003370803611468	0.16870648556600296	-0.13451822776031125
3.025	-0.11312288221259591	0.12046291433324764	-0.06878055073832257
3.0300000000000002	-0.11051314522215878	0.1799408194183441	-0.11168228445635349
3.035	-0.1296430571505073	0.19422674752908756	-0.08095052691204954
3.04	-0.05616880984290173	0.08299583485904728	-0.052115001054688324
3.045	0.00433389100172743	0.16216830262465895	-0.0497423728391529
3.0500000000000003	-0.09932622432432114	0.18536282060457676	-0.0015295042670803866
3.055	-0.1312452675216692	0.1570954072824506	-0.0633991746546849
3.06	-0.06911511698549377	0.1907401747409573	-0.11693173474687446
3.065	-0.15023235261541062	0.07290743176747125	-0.04241148469556273
3.0700000000000003	-0.07347590215777472	0.14137435930835068	-0.09560523715266271
3.075	-0.15479512731513184	0.17303895317040122	-0.15032351434451635
3.08	-0.10542524002151053	0.11006559529517979	-0.09383710380128407
3.085	-0.08452247680635983	0.10927475473484863	-0.10657335803421185
3.09	-0.06624777132071308	0.2291701613541408	-0.05213867437019541
3.095	-0.11528409064809642	0.23250093165619112	-0.10167207250710195
3.1	-0.14150310622995155	0.18583420349967894	-0.027120501810248554
3.105	-0.011072194307306313	0.15254676592808944	-0.19905443849759197
3.11	-0.14960076614148143	0.09977394377741243	-0.05389470717555858
3.115	-0.06495728006910295	0.21900126764322808	-0.08791420377507553
3.12	0.036098144132143184	0.17351473368800943	-0.07563366688424666
3.125	-0.09119009913389772	0.06744434418253159	-0.09311427485449306
3.13	-0.08557739433979653	0.23270676836032622	-0.07811253170245555
3.1350000000000002	-0.021291725033174932	0.16494018370280783	-0.04245226472124611
3.14	-0.11073335674105145	0.2786858365646039	-0.05397101231046947
3.145	-0.12649641244347604	0.19580381570939337	-0.15952818623609652
3.15	-0.1373429657873728	0.21586119416732427	-0.026229004417341904
3.1550000000000002	-0.034012272658565657	0.09637589795366994	-0.010119893091823713
3.16	-0.05755564116216352	0.1255441831757159	-0.06409025724733877
3.165	-0.1000120148011374	0.16577558543023482	-0.053856282516574996
3.17	-0.00023584241581724175	0.08573981004779141	-0.014416744398709463
3.1750000000000003	-0.11142898135412016	0.18077530157908173	-0.07469589758236649
3.18	-0.03735670733004785	0.08311017995961462	-0.13652592402650943
3.185	-0.07273653352407898	0.09482587308412518	0.027451712460102744
3.19	-0.10554450646493181	0.26031786016279423	0.05029661651853106
3.1950000000000003	-0.09015815177070849	0.23629680108832352	-0.09942203662885352
3.2	-0.0418267860170363	0.18677617647436084	-0.02923131232496623
3.205	-0.041318236040796555	0.18900452540659762	-0.04763457780539528
3.21	-0.052335350072580805	0.30260453249160113	-0.008517984485393787
3.215	-0.078011135038633	0.19844638108197282	0.014212426186300937
3.22	0.04119659889549096	0.13302727338949824	0.023871016021129506
3.225	-0.03249623772520727	0.24449427993130482	-0.04986207917273773
3.23	0.06136051366800345	0.18135582130662234	-0.061100313919768924
3.235	0.035118827429491094	0.1484378418717807	-0.06121849988799184
3.24	0.021218154628052523	0.21406899354350156	0.02594484016218962
3.245	-0.061313964298881	0.16510827296396197	-0.05622874276243944
3.25	-0.08725142437617897	0.23888759687763783	-0.032723373995838155
3.255	0.03904078451180564	0.13518008441738608	0.0476467029599521
3.2600000000000002	0.0015488962539322512	0.20169129583585965	0.005495345361042132
3.265	0.035785363665641425	0.19123155231802813	-0.02224637607155909
3.27	-0.05902147024160138	0.1810979407269065	0.00881616863818574
3.275	0.01384550818565835	0.1106286568050397	-0.04297279933291623
3.2800000000000002	-0.08621074605342453	0.19782817771030017	0.03902390191012822
3.285	-0.04328902750002689	0.11907456296428869	-0.11718988320810682
3.29	-0.0047724638199488426	0.09524300737477609	-0.05140715026432989
3.295	-0.03425385881699137	0.1920665583097456	0.014871057982716897
3.3000000000000003	-0.04657402706903628	0.11800942738851242	0.008114650359699075
3.305	0.02187742691243945	0.2575065557510021	-0.011301669491604764
3.31	0.01966585953204545	0.3005972315988872	0.029751744171856713
3.315	-0.02516305601836506	0.18561757698012596	0.11554701428556902
3.3200000000000003	0.06617162127496531	0.29668205317695273	0.037568896470919634
3.325	-0.039813455925296226	0.212072406549561	-0.07272889633610036
3.33	-0.023987565241697602	0.16142788034966027	-0.013950819589224481
3.335	-0.04876739764182705	0.18308016956439546	0.0554758797502161
3.34	0.033750008302424105	0.18271752680217232	0.15694534778242586
3.345	-0.0007974850318460732	0.22875315028146376	0.019850561514411467
3.35	-0.13521283543809404	0.18760970424993895	0.059666006244253306
3.355	-0.04606352381387667	0.25983501985785484	0.0612002633662196
3.36	0.040917399079876834	0.175596318866193	-0.05125289750787014
3.365	-0.06406969201115335	0.18345418487479595	0.011405544197442028
3.37	-0.06168083232323879	0.17514672260723532	0.12911966613515222
3.375	-0.06404822321557027	0.31935477978479954	-0.04436139985965966
3.38	0.08429184739896588	0.23184609101912698	0.10989851479175883
3.3850000000000002	0.05938140428811021	0.15560767580909945	0.007637242347304715
3.39	0.005534691502306455	0.15868781158214987	-0.013008247460051602
3.395	0.011107050306551706	0.14821114953576559	0.125315029358763
3.4	0.0389969086844784	0.18983688310886984	-0.006793702386074331
3.4050000000000002	-0.03991078244195503	0.35988471068018346	0.07888999442502875
3.41	0.0260652426793792	0.2609868026722897	0.10319496598265396
3.415	0.0640577858416659	0.09972501925333524	0.12798825567168348
3.42	0.058981599836334	0.1970462212851501	-0.04496794245482322
3.4250000000000003	0.05817052971336295	0.25324277355913705	0.06919832725453173
3.43	0.013386728289528652	0.3107458249400796	-0.029151397741810192
3.435	0.07660700956240654	0.1821672390711273	0.0848866532248134
3.44	0.06986234208476302	0.25426850100163345	0.030854631944441546
3.4450000000000003	0.0638339552298232	0.23821648483989574	0.11178452286708693
3.45	-0.03251837285664734	0.1725764987017884	0.01209115640887596
3.455	-0.023553669151505696	0.16688901177954346	0.09089568463010186
3.46	0.03750972909380649	0.22225650250547446	0.0421791985851625
3.465	0.047107135403578825	0.19276028482577695	-0.027067592221728887
3.47	0.06543167379039959	0.1498069486103344	0.04127999703958363
3.475	0.063818253597995	0.17674472737330643	0.1125343648642738
3.48	0.044958231815663066	0.21731379388047362	0.08848078473218969
3.485	0.0903854045308361	0.22063065249749506	0.04416337268647363
3.49	0.1069530300685013	0.14988145754753981	0.06689698500699529
3.495	0.09377172962097083	0.2133357855739106	0.056997039422705835
3.5	0.07485341656839944	0.18650273910336182	0.10818090155918873
3.505	0.07769929376382566	0.24403259683489936	0.09403908460069876
3.5100000000000002	-0.004437089000123656	0.2020894599423746	0.18519807364838298
3.515	-0.01488810865532654	0.2880049149021582	0.09611152481063778
3.52	0.012323100450852553	0.16227294589087848	0.1597388876499582
3.525	0.05714788538870385	0.24793409645440423	0.05079221287507489
3.5300000000000002	0.059775206739729296	0.23797453485118103	0.06768344063639156
3.535	0.06090585816189014	0.19944572349609538	0.09331962392211839
3.54	0.1126946775452187	0.23436058633348822	0.03789939749033109
3.545	0.07461607825631603	0.17457369054084065	-0.0020708117903235623
3.5500000000000003	0.08484521024334947	0.2589324512696058	0.16011181364914503
3.555	0.030061465690197353	0.21829383449316905	0.14160807931914574
3.56	0.13096036128347405	0.20138520294256781	0.108940568731414
3.565	0.12633078532238015	0.1615912231390747	0.08099533642934344
3.5700000000000003	0.14796900407142455	0.21275469949005169	0.10573763891340275
3.575	0.058711583609602803	0.24724613540368123	0.009579173559165668
3.58	0.10928133871713644	0.18466936757273428	0.08833304993483378
3.585	0.08881759831048723	0.189373718961873	0.022454148475773164
3.59	0.12090568474438378	0.1933350912507506	0.07629538240225285
3.595	0.14349111516458418	0.17019308327417215	0.12516632209552359
3.6	0.06352271907923493	0.17404210706217083	-0.03831087322600717
3.605	0.08108193503556571	0.20811848638861818	0.14985568206405286
3.61	0.09575478728464057	0.1627651855975129	0.0896773473146974
3.615	0.04825098078517831	0.2079319304320296	0.13282071810084214
3.62	0.012048809698746818	0.17624703913245618	0.027993283488636195
3.625	0.17832810919358977	0.09351569234522307	0.20265691427630728
3.63	0.12800537352351288	0.18263924892738312	0.05526613230312004
3.6350000000000002	0.07638757584952238	0.03730489170662818	0.09046542217405781
3.64	0.1315678882113082	0.1989983086810409	0.012170679605643511
3.645	0.07780756700382793	0.11857071960004148	0.033913064384832645
3.65	0.05757607717298085	0.2041181766631333	0.1276668311316399
3.6550000000000002	0.029144204475667485	0.2882554323281124	0.10381092577474124
3.66	0.16518946328185086	0.25287747972859764	0.13242281777293563
3.665	0.06940824344959423	0.14044307354408853	0.1124969339104307
3.67	0.1630011381144313	0.15433484076166937	0.10234815504579534
3.6750000000000003	0.08268393640527325	0.2088358019347027	0.08602037346474745
3.68	0.1264568381597346	0.19043768502879185	0.15022975618218187
3.685	0.04400766895559059	0.16855292757164297	0.09270132617242668
3.69	0.07571950123603824	0.19771731807110482	0.19913000394022196
3.6950000000000003	0.15411045064539153	0.22551657425333319	0.14294941995718283
3.7	0.1628052219688842	0.3143426437544695	0.1247650319661915
3.705	0.1444495640378595	0.09111191380126367	0.13583348959993863
3.71	0.04897923493073977	0.2609660626884913	0.18095148748257678
3.715	0.15344058048479328	0.14136970531059023	0.07455606385902314
3.72	0.13532515049996857	0.22057683077330653	0.07486386065316708
3.725	0.16199306313497264	0.1820506861586505	0.15702507540187133
3.73	0.13095305296884258	0.17584722841661932	0.14585186218241739
3.735	0.0015605858090592395	0.19953482247769583	0.11746198825539389
3.74	0.15340408069710745	0.1744764466660409	0.21971000186599535
3.745	0.17958789475735712	0.16002166328413087	0.18686092578610522
3.75	0.11545635698334573	0.16852090588802843	0.19919897552318638
3.755	0.17784691882756565	0.0912906490755731	0.12718890819377393
3.7600000000000002	0.11058960728723918	0.2198182560258694	0.06856684015794637
3.765	0.09860536563590677	0.10940122349679364	0.0879627455971955
3.77	0.18863587249995703	0.00552430506033208	0.13633406014742075
3.775	0.10529219284751712	0.1854716426615927	0.1494996511427155
3.7800000000000002	0.08595946259387977	0.12493343922899287	0.1854832862838317
3.785	0.12509528737066855	0.1357282429641642	0.14224640378942566
3.79	0.21582120154747206	0.07364375986495467	0.23436374814011413
3.795	0.17618816392349948	0.17579201080401793	0.15565064047126095
3.8000000000000003	0.22824080004895264	0.14810395749303612	0.052767420787907
3.805	0.08925503356001542	0.13217315846803218	0.2737435622373535
3.81	0.1999327551014114	0.1563714123327476	0.10810745314332296
3.815	0.17475542193154997	0.10440641283009618	0.11701407070116417
3.8200000000000003	0.101769506770604	0.19586022756114693	0.1587409555898349
3.825	0.07082729815716911	0.06843084688011104	0.19462298087332408
3.83	0.10553927530580653	0.22306371031248676	0.11617131634274339
3.835	0.17783947415813486	0.08761718613137964	0.16154564153970755
3.84	0.06411493675662604	0.08881459837243055	0.1254304816590745
3.845	0.18491829411267297	0.07539169950914845	0.08268187945302974
3.85	0.14058573645981792	0.1459947992900853	0.1323781192197077
3.855	0.19017237302810874	0.19707223924424033	0.24153363488433005
3.86	0.1653485391169285	0.11015679392734308	0.15004965236336137
3.865	0.2302142417507644	0.12769665262308622	0.17156187057481279
3.87	0.1656438705426841	0.13946794913204597	0.11098709233629392
3.875	0.10172295205693425	0.02405495559926632	0.1316227225316014
3.88	0.17964283268456874	0.09121331058747076	0.17573513843850783
3.8850000000000002	0.22812773041858478	0.14578755757747966	0.1657839851894638
3.89	0.16454753021954951	0.09633066517350303	0.21277932704957392
3.895	0.197543398602278	0.09760390667943261	0.25907997003843714
3.9	0.18341187520398883	0.11072794518184695	0.07504750223260505
3.9050000000000002	0.1729011807073517	0.13663471118166998	0.23910670344177753
3.91	0.19502998692630572	0.08417843197787955	0.1730895889548981
3.915	0.22723235111599221	0.1241972396131421	0.05041814371622991
3.92	0.12356650020716772	0.08043056744870777	0.14870705555181607
3.9250000000000003	0.16404889397418776	0.07977268703869833	0.17424397120967286
3.93	0.1183832292103077	0.07001810890052303	0.18614434258031823
3.935	0.1684304355400309	0.1332416417949735	0.282839285618958
3.94	0.17191958637379506	0.02075975737002679	0.28363344867212503
3.9450000000000003	0.16330930303327454	0.008160243782447549	0.09803481634829779
3.95	0.1971513483733955	0.04513480330401288	0.20920682167615728
3.955	0.2490515421505916	0.06999992993012359	0.1717357272854678
3.96	0.2613229318062774	0.0971238505765053	0.20991499662204616
3.9650000000000003	0.13271615971803705	0.16327814434846172	0.22834133234415874
3.97	0.16311821100595383	0.08333568179604135	0.1885909334705089
3.975	0.17121199585226912	0.15133581203830582	0.20233417253742716
3.98	0.25192237057893246	0.0923425539059615	0.1933098194895443
3.985	0.24040331369116874	0.09207250238764411	0.24471652528067955
3.99	0.23550972515982088	0.06332086132520331	0.23507070548285777
3.995	0.23840564314373047	0.11022123774993056	0.19421778668850084
4.0	0.16473487241125212	0.07987940840079981	0.13601938506293193
4.005	0.12182179345502202	0.09453781357278282	0.2234410106343562
4.01	0.18114465252630127	0.02549009307292452	0.22375637386427008
4.015	0.18041022576191584	0.11183322620987605	0.214291174790159
4.0200000000000005	0.093324815175958	0.02853669111828435	0.1526682153253997
4.025	0.17348320193234854	0.05906996192015805	0.20508978590470495
4.03	0.24644027906276134	0.055859144012754144	0.16302116951931667
4.035	0.24907121067516044	0.026575672855157786	0.15038467227846086
4.04	0.2371315206359114	0.04780360624324065	0.20847358185629808
4.045	0.138847727449985	0.04701232444668628	0.1796406299556443
4.05	0.19297689935138776	0.08015299368568354	0.1741472330459014
4.055	0.15964300139447796	0.08710707665444531	0.30401538543364337
4.0600000000000005	0.21676432419306318	0.00393339211140032	0.2134029406285273
4.065	0.25178563873480425	-0.027693698205662816	0.20795620879702936
4.07	0.16217633637854179	0.06714942030369196	0.25674721500913483
4.075	0.1897579603753068	0.01759434071614495	0.1376927858509035
4.08	0.2103286262018743	0.020935531075020428	0.16508117192103647
4.085	0.15527124142600096	0.054780364075260414	0.1860519041417026
4.09	0.23331383510348375	0.0914032260641835	0.21409372023442924
4.095	0.22345949234775803	0.031623026152816855	0.23551641006790763
4.1	0.15807670692862796	-0.024180126145286654	0.19056974667023627
4.105	0.18167996406103537	0.05214870945851886	0.1795769483017659
4.11	0.21565687295342423	-0.03695803695232017	0.21366720871132017
4.115	0.2451119256264995	0.0440307364503915	0.16044012839693553
4.12	0.26564111904242216	0.01402941710662242	0.23786907799074247
4.125	0.25799179935597355	0.07338076296795276	0.19234145248825452
4.13	0.12605667801964696	0.0662077526010017	0.19107540892464972
4.135	0.21909895833006726	0.01916570639090252	0.246121299199785
4.14	0.204819038428362	0.08052473403404092	0.14367155280780222
4.1450000000000005	0.1454109089953588	0.01811698523440794	0.22522867728524315
4.15	0.19430306054490207	-0.030706687241071475	0.20967754406299807
4.155	0.2414251807034981	0.04748605596516309	0.22096369682031186
4.16	0.2137412292427382	0.05734710485364033	0.24191521072353517
4.165	0.23645772161858133	-0.0010915770359499147	0.17230464785439825
4.17	0.14143065684476228	-0.017068806067315048	0.30147927743686265
4.175	0.17721770302488124	-0.014162283468047687	0.22243891131208166
4.18	0.15938655841500393	-0.045482849515317635	0.17943548134100237
4.1850000000000005	0.1855958696616573	-0.016695947299610905	0.2571648449363397
4.19	0.25297446511811905	-0.030156396986012777	0.2541633402297393
4.195	0.2698158665693226	0.022930685486548974	0.2164612553227887
4.2	0.15515479648081176	-0.06915986355856969	0.11894642393076339
4.205	0.18809068268727067	-0.010486785192674139	0.2861617701411149
4.21	0.18918910786946694	0.0030757178455317682	0.28020403260182425
4.215	0.16745556415895352	-0.04598698910325909	0.26463622967538514
4.22	0.12953217191794614	0.014963565872483674	0.22450622223713218
4.225	0.28641029399904916	0.03681445723319023	0.15930702890060475
4.23	0.18229661706797184	0.12344089510226465	0.16363824907360885
4.235	0.25878471846389106	0.01821956228303645	0.24540369264767822
4.24	0.26626896355950885	0.013874255372504925	0.19384202724273986
4.245	0.17708298545002402	-0.004221615274681026	0.20910248228550776
4.25	0.19053893230175567	-0.07686917769433667	0.2544049330023894
4.255	0.16103757899808202	-0.021976751973142444	0.21774332273592403
4.26	0.2471570518726402	-0.07783746031222312	0.24803200427216646
4.265	0.11696122910476746	-0.03560749782891774	0.24137787198546126
4.2700000000000005	0.15038292141352627	-0.06268744087956148	0.16977261172723396
4.275	0.14261168085195694	-0.1553439370156482	0.15272340302581028
4.28	0.11320329099274422	-0.03316648677200967	0.19633457660145506
4.285	0.23669562018713514	0.007492789961950019	0.09504405381415751
4.29	0.17196093661251616	-0.06649381900741806	0.17791855514617322
4.295	0.20620151516580346	-0.013381724784282421	0.23594184446994126
4.3	0.198371578763908	-0.042823530976370296	0.20785959297263273
4.305	0.25142916482251226	-0.09533947449821623	0.16165622814282204
4.3100000000000005	0.08906387346269197	-0.011901658459416813	0.22742929162622366
4.315	0.16230577918047587	-0.047216088495021624	0.2857542194609764
4.32	0.23984823032032024	-0.08327184659745446	0.206488644475813
4.325	0.24782037041958055	-0.012979217082800837	0.282783710365294
4.33	0.18078756128745024	-0.03191817262287706	0.3048499434423011
4.335	0.14930369387214543	-0.10356416494686405	0.19243515367975322
4.34	0.19535891074423659	-0.03834408567799491	0.2254602211952872
4.345	0.15355249864856998	-0.06132678399612819	0.1950307658916384
4.3500000000000005	0.20720693403062548	-0.08895488432882895	0.1618103604870012
4.355	0.2273412419251632	-0.030318754086608814	0.14634668865911074
4.36	0.2170684381384132	-0.05846216643795692	0.17360705394018894
4.365	0.16142148937425765	0.015899620304428888	0.20051219152661595
4.37	0.12200884001993818	-0.06941170071450534	0.12759486674193932
4.375	0.2155801623743243	-0.07172829628503956	0.16506885049170558
4.38	0.09160181027823427	-0.1787346375918133	0.20982279482620853
4.385	0.22730431483848032	-0.04510872105558789	0.20251261159549558
4.39	0.12504053432948298	0.013408880247038055	0.29702724675305303
4.3950000000000005	0.177224472372882	-0.0741588620704027	0.09948218203651696
4.4	0.1451039950423936	-0.07332663940026066	0.12582829755071093
4.405	0.09244915221197733	-0.07097067043513974	0.17709696729859511
4.41	0.1644365840485411	-0.10675466944677629	0.17493962705231494
4.415	0.20146184705789086	-0.10091271217544107	0.21147235588782892
4.42	0.20048464755166417	-0.1824337153344801	0.15544113590436157
4.425	0.16779797717921108	-0.18624348093907225	0.12769357090951816
4.43	0.0914685284060192	-0.05691067174254279	0.19160135742730405
4.4350000000000005	0.1834043206636931	-0.059283914907885295	0.1314303840030527
4.44	0.11685165571190018	-0.16755245408983283	0.20180367125103493
4.445	0.07132533220778495	-0.062025881033616455	0.23505583681688047
4.45	0.26941545019009894	-0.1044061306033868	0.16704071031563447
4.455	0.1904843989946739	-0.12208612815532514	0.1176218557804479
4.46	0.17981472228358064	-0.03841685221941958	0.17165438539774228
4.465	0.1800271628578989	-0.12240496725764054	0.22528403121106355
4.47	0.1117325440170763	-0.14796312963470368	0.16593594210240653
4.4750000000000005	0.18673716839443397	-0.048323038848612186	0.16557013470201307
4.48	0.19579095438098737	-0.07776187061484163	0.194171249679859
4.485	0.13684823736859858	-0.14706293916216215	0.1943215641102532
4.49	0.11994566270856913	-0.02912405780996946	0.14371159055793006
4.495	0.21493564522064534	-0.08010675402802461	0.12420813045250914
4.5	0.15601851976749448	-0.09630888582426464	0.1636102553666329
4.505	0.15967385347890395	-0.06918845417356359	0.2152095636021897
4.51	0.026376472061329176	-0.12414024635057513	0.23498371873083002
4.515	0.17531107416311295	-0.21291387730583006	0.08109862906442682
4.5200000000000005	0.18987667153425855	-0.11212806134879111	0.251454123797206
4.525	0.2060238519701861	-0.07664284427333237	0.182752481970348
4.53	0.2214183469600413	-0.13491848000838305	0.13388821314110055
4.535	0.1463335354637431	-0.11671705954045788	0.16968335581749291
4.54	0.09789293746846078	-0.1338643864426562	0.16845483634816838
4.545	0.1326962700783707	-0.11606584768097311	0.08838633593038485
4.55	0.22982007318162728	-0.11901587325098419	0.1208436262711875
4.555	0.11560028488587305	-0.08937985724186759	0.17731030128182235
4.5600000000000005	0.09181972218622611	-0.14682612697815092	0.20851988657021298
4.565	0.17769131761726595	-0.2151256725564725	0.16514445884584728
4.57	0.16681949466136173	-0.07000276655913969	0.08778510893973385
4.575	0.13893706094089744	-0.1925871733423201	0.1746886952035537
4.58	0.09117958958520972	-0.180683080042288	0.19095316425617512
4.585	0.18581218295589097	-0.10815935910851313	0.14204307876457364
4.59	0.129644395860033	-0.22530707808127107	0.07565858048785619
4.595	0.09619515142423804	-0.1371508974597425	0.16947829556880392
4.6000000000000005	0.1446385611107158	-0.14858651111106724	0.13695241077204706
4.605	0.1558592635975059	-0.1899360202774542	0.08597650078477534
4.61	0.11884656021537486	-0.16763361378614364	0.12377932619116028
4.615	0.0815544759085006	-0.25896294718596896	0.15513521056705912
4.62	0.19592549914284482	-0.1559435244937762	0.0838354698628978
4.625	0.17328447812393055	-0.24972742912132478	0.12200264013557222
4.63	0.2124723989875379	-0.09355389032587277	0.20906456190810407
4.635	0.15038665577265053	-0.16513961081235906	0.09526310907164731
4.64	0.15211350624738904	-0.12815711126544785	0.14458239650808075
4.6450000000000005	0.1529978276632066	-0.13166252344426918	0.05454011791177202
4.65	0.09925424246526701	-0.11321892128052818	0.06200873183494311
4.655	0.13218213757159952	-0.1809451747386281	0.1236957212667885
4.66	0.057585868077049636	-0.12287189716467889	0.1277756551288362
4.665	0.0441508453729077	-0.18797122480758857	0.13409700739248795
4.67	0.005941602505275673	-0.11592604257344666	0.07353524094567955
4.675	0.03430908363621689	-0.21703541311754332	0.10677656906783105
4.68	0.07244340259508988	-0.10016519621458077	0.26989801654287143
4.6850000000000005	0.1364493074614562	-0.2215444861841619	0.19057302601918896
4.69	0.1305885461555046	-0.21595999961730097	0.07301755884534628
4.695	0.0859286739193752	-0.13868797073491643	0.1875940076923906
4.7	0.12834085885318974	-0.15378925519674405	0.07458222174796522
4.705	0.05752339665997655	-0.19750171632408625	0.1198886931523977
4.71	0.1563665011435855	-0.14537691676119255	0.08503091944523189
4.715	0.12866058850244694	-0.20137757705224651	0.05135882877628306
4.72	0.10715620323847487	-0.1335098332783253	0.1418723943805986
4.7250000000000005	0.1901442190656478	-0.1771282989217337	0.0883425063823399
4.73	0.12617332386220473	-0.17483196216250468	0.08248038659633097
4.735	0.10696687109534007	-0.20565835365048743	0.09648393083410305
4.74	0.08307152931844504	-0.11701438448903252	0.05452767125601518
4.745	0.17422910571527223	-0.21877094759520915	0.13956161139964063
4.75	0.09706759075565528	-0.16517694886847192	0.15809182890878756
4.755	-0.032799762161806564	-0.14744998666491735	0.084975242100551
4.76	0.1315370626444666	-0.18078166550593514	0.18962762008226197
4.765	0.12574447114571896	-0.2574534122015797	0.11892418585328626
4.7700000000000005	0.0986698412704794	-0.21282230133462982	0.07533189841691605
4.775	0.08620797385674982	-0.16380306878898185	0.15036715758609856
4.78	0.0313826417763312	-0.16408420837343207	0.09682803545802483
4.785	0.016727055283594444	-0.1987846989604919	0.0451640409770793
4.79	0.018046829478295875	-0.20234242985691167	0.08827505982507138
4.795	0.053418119857752376	-0.198737186550124	0.040335058534220564
4.8	0.06211578211647829	-0.1934104660902012	-0.013023425443082035
4.805	0.07992894153972939	-0.17363221613533614	0.009419094083261928
4.8100000000000005	0.11737314827345532	-0.16544519229878657	0.1125422880835218
4.815	0.09125453998369375	-0.18889915525026293	0.14751888970483523
4.82	-0.012145960178598217	-0.12393087655191228	0.07747471214459321
4.825	0.08373654901944386	-0.18240747274081429	0.19716940284172263
4.83	0.09600564180584573	-0.069231372797498	0.03443383951620381
4.835	0.03630733640127064	-0.20712829790343124	0.08809189533871682
4.84	-0.014542743701222355	-0.112030655527567	0.0975751450839012
4.845	0.06098737861263591	-0.23329076233773643	0.1669323817014089
4.8500000000000005	-0.046735366483697124	-0.14292379767271893	0.041273667289707244
4.855	0.11745811969979883	-0.1995802290061139	0.11539514525306906
4.86	0.17627776321428174	-0.21447343061977445	0.07179142251822154
4.865	0.08990372655371989	-0.1808526501528282	0.1366363207654468
4.87	-0.08208928917473121	-0.1883148567938076	-0.05173773650412565
4.875	0.06887455270763765	-0.1551683113880864	0.019009360066911868
4.88	0.058226027335097456	-0.306577467432993	-0.04368319011436657
4.885	0.04976143950209986	-0.25087008227993546	0.06012809711835528
4.89	-0.07569759561387568	-0.21391473620398585	0.0912938099103445
4.8950000000000005	0.085788354818379	-0.19931259292887993	0.06709409316781997
4.9	0.004547595505584881	-0.18092202533901097	0.1200760666706634
4.905	0.007954929844738019	-0.23521829782428016	0.09693947894493737
4.91	0.011033643946133844	-0.23594009538589145	0.11807443566518572
4.915	0.04397013980270384	-0.21939726750589275	0.0587782853501915
4.92	0.004574471281125297	-0.1989266575874813	0.10440338665202756
4.925	-0.016873740237895313	-0.18315693817536316	0.13477446738652832
4.93	0.013176053983822225	-0.20764920532738662	0.04176489087442668
4.9350000000000005	0.07003952223179985	-0.1865387601984747	0.08280042127682596
4.94	0.023704832200967065	-0.23646368650722274	0.11875795647571913
4.945	0.04649952912003601	-0.16129962011911964	0.0791838181887053
4.95	-0.041144601687584284	-0.2140051698653922	0.09192653805030032
4.955	0.08961624068292369	-0.10640269306938287	0.04667589743564557
4.96	0.016339111189919892	-0.20807198601752	0.05726706328403686
4.965	0.027285765114216536	-0.20968018380630973	0.07478107757100536
4.97	-0.03719939412796279	-0.2299779004910796	-0.0067520521482843585
4.9750000000000005	-0.011319067810205767	-0.1860784858952809	0.005375222190224495
4.98	0.05558381212259529	-0.1830763833266538	0.009303559544269948
4.985	0.012704332221325875	-0.15692803405649716	-0.0020870814078310512
4.99	0.04316162639771643	-0.2104311380257884	0.09200544016536104
4.995	-0.008759193840155588	-0.176248934907816	0.011835295294546883
5.0	-0.004124644204569232	-0.14684266927216483	-0.01892850078041973
5.005	-0.05780804740872014	-0.27627933235266394	0.02640088977429627
5.01	-0.0012867494667113655	-0.22421635886751812	0.031429384190328286
5.015	-0.031472731909676435	-0.1724332533334401	0.05191599288643435
5.0200000000000005	-0.07553158801989539	-0.18744180568739313	0.01009066274907637
5.025	-0.032033885500365046	-0.22958900268661492	0.009695834197038254
5.03	-0.10124555966845787	-0.22219156133142376	0.0305286247497156
5.035	-0.12043985954892655	-0.15564845562040355	0.004487903677823608
5.04	-0.08843032117390212	-0.23658964130591723	-0.0337619733686213
5.045	-0.09543997153349901	-0.125148196066517	0.009717134700572066
5.05	0.0583655127260985	-0.2254464451614422	0.0038445053695179655
5.055	0.0866392279420932	-0.17048769809987818	0.05488490908807622
5.0600000000000005	0.013202062012404862	-0.23632190583800058	-0.036507896761878156
5.065	-0.042457749290308225	-0.18296171155884736	-0.0014439615864213734
5.07	-0.02787835238786224	-0.1737646561006167	-0.0035289381411176615
5.075	-0.022468705487819825	-0.13468717593809135	0.03678311363765517
5.08	-0.04788872811672752	-0.23497811361634624	-0.01140669983063713
5.085	-0.04045540995937018	-0.20356092716467716	-0.026797773888059595
5.09	-0.007677479881457765	-0.21834698165136118	-0.09652000936576258
5.095	-0.09566010509238439	-0.1514936211826162	-0.028382997807683486
5.1000000000000005	-0.1550385960570961	-0.22761245667012844	-0.05934684578237267
5.105	-0.05545462766060711	-0.2282764052595948	-0.04157124755469215
5.11	-0.10723178308013454	-0.17488858589393594	-0.012803644209847458
5.115	-0.09280041275114288	-0.1836395586441266	-0.032578537242992034
5.12	-0.1386432481416991	-0.2517004131148749	-0.052251136049771815
5.125	-0.028871822107624193	-0.19826446399767386	-0.009771487164147462
5.13	-0.1376758733248089	-0.19374376866915263	-0.01629145593422691
5.135	-0.13989354212787863	-0.19683518020101334	-0.04924661930396303
5.14	-0.06672495617394564	-0.22944825500708793	-0.0010339763987139844
5.1450000000000005	-0.03965771807025456	-0.1382871314522297	0.0222974703833081
5.15	-0.08045652807017728	-0.1585834836068934	-0.04474972002111273
5.155	-0.02166363452086781	-0.14031149777466506	-0.012249421630866668
5.16	-0.019474348251094682	-0.19283971315123768	-0.023387207660306737
5.165	-0.04327593528351592	-0.1767207610897515	-0.042919753550522646
5.17	0.04128829334207093	-0.09568856087950674	-0.06725398542342473
5.175	-0.03755522439708776	-0.24908607410437753	0.02354355741057896
5.18	-0.10390107254216586	-0.15638877635203802	-0.13576586532159293
5.1850000000000005	-0.16718920858190825	-0.13118255870371515	-0.06605618269085997
5.19	-0.05092794795143084	-0.2241238881680805	-0.04565362001114582
5.195	-0.05210129704629468	-0.13640642823658172	-0.02163598203888354
5.2	-0.1349056591355504	-0.09294680095429073	-0.007555483153036169
5.205	-0.000364896032769485	-0.17603810754199933	-0.0267691182078063
5.21	-0.09599912583347883	-0.1930489933598031	-0.11319893916619503
5.215	-0.06220683740015811	-0.15316497813606433	-0.0324131691925328
5.22	-0.05580822969940538	-0.18195721730830589	-0.09843229715597276
5.2250000000000005	-0.10647853291625783	-0.1478455382918575	-0.0018611631840469989
5.23	-0.11855143034659313	-0.12683697163667934	-0.036787357148405524
5.235	-0.012603056713693842	-0.2006835742135871	-0.06064208708065101
5.24	-0.16237292959661967	-0.1226320319382821	-0.05603570989173682
5.245	-0.030279110754262185	-0.099002023410307	-0.11511626708421097
5.25	-0.0691301257055437	-0.14371073043406274	-0.09793121197486268
5.255	-0.142300421625299	-0.21742750849911927	-0.05910504739264859
5.26	-0.18611513148779277	-0.2373761198115273	-0.03362990502694941
5.265	-0.03489147990640035	-0.18072622849380326	-0.05304667075218955
5.2700000000000005	-0.11071346148449239	-0.2283406114745675	-0.09698069868553336
5.275	-0.19647426119613626	-0.08179367836363721	-0.108699642186038
5.28	-0.19420134089460994	-0.12570031885730718	-0.04620507806275294
5.285	-0.11982306117211369	-0.09005398485326781	-0.141024406270864
5.29	-0.11388232742685514	-0.14434063529823546	-0.009206151669715779
5.295	-0.15286337280233855	-0.17362031273628453	-0.12135797786790113
5.3	-0.0712025910484819	-0.12582361993822375	-0.010365681225759094
5.305	-0.13909237139478328	-0.16130036715461502	-0.1777234931818249
5.3100000000000005	-0.12376542242112948	-0.1299035293591702	-0.04013790245552329
5.315	-0.11486173380524209	-0.24931334448171294	-0.0799804069360563
5.32	-0.13222133257867433	-0.2062503938872945	-0.06300789839359476
5.325	0.020816991568338786	-0.15291018783747728	-0.03931891217146763
5.33	-0.14150523101318732	-0.1645060310861874	-0.07124539652181894
5.335	-0.12463108851768342	-0.1484337514428299	-0.08705894346635532
5.34	-0.07272756539870093	-0.08897391996223412	-0.043902571226997186
5.345	-0.15453268615179255	-0.13615591761559256	-0.14579724824688445
5.3500000000000005	-0.22302440045378225	-0.20897104233569536	-0.1082861246309368
5.355	-0.15703339835126792	-0.10037949707646074	-0.07871008521899639
5.36	-0.11453587652202923	-0.1617432890419828	-0.18947448181540352
5.365	-0.21599635281833762	-0.0979945133325007	-0.11262272956067759
5.37	-0.17218703059053614	-0.1740324560828081	-0.09315471907832332
5.375	-0.0843994779167271	-0.12823249976879705	-0.15223866585572488
5.38	-0.16084585401658152	-0.11932789509703362	-0.09583301924682171
5.385	-0.0692244874937096	-0.1517212249934563	-0.04281048448477298
5.39	-0.20918889846588312	-0.09915962299519798	-0.03292366806872221
5.3950000000000005	-0.13569710428355264	-0.19836012275380338	-0.06122605879341017
5.4	-0.125924968646208	-0.05554375370298546	-0.15046758807954522
5.405	-0.08020997874206445	-0.13899128068977212	-0.09067827532244767
5.41	-0.05428384625405537	-0.09928260469869463	-0.061794625720441615
5.415	-0.06164503814248365	-0.18903047898816183	-0.1299024997640288
5.42	-0.14296094348398092	-0.2330367097181071	-0.10067852020260243
5.425	-0.12861760542871845	-0.06024411803472057	-0.057601365855798295
5.43	-0.0894205248164015	-0.06054305133030525	-0.18210246469165858
5.4350000000000005	-0.11442644647106276	-0.18839159529618105	-0.0732168166567493
5.44	-0.18273142248584595	-0.07089568830945589	-0.18740351156268575
5.445	-0.17989165001635615	-0.14335512390214664	-0.14492963989266616
5.45	-0.18913891898789353	-0.053511368551646975	-0.03662559109227419
5.455	-0.13793423775101504	-0.06012385534311414	-0.13398542135288388
5.46	-0.1859815772760936	-0.12087896273865006	-0.08095761766549792
5.465	-0.1561881353183934	-0.13579113572965215	-0.18118868931094612
5.47	-0.1821107437583911	-0.09625204212761244	-0.21412372229378182
5.4750000000000005	-0.19980254487176374	-0.08644159944532173	-0.16481194527598841
5.48	-0.10883151366931162	-0.11690352062388414	-0.09098884704031776
5.485	-0.25624672240862284	-0.09612713254538008	-0.15530067308668521
5.49	-0.21338812408519175	-0.050806810519194945	-0.20061382610279405
5.495	-0.13550627395299059	-0.17615862393432832	-0.17132045478895463
5.5	-0.16533698781807676	0.002094453362413193	-0.09291179645775768
5.505	-0.23757610550506642	-0.18833259003281866	-0.1619647405304401
5.51	-0.16893889133648346	-0.07794022457948979	-0.1503807090846112
5.515	-0.17312972826688108	-0.07393687061783966	-0.08776433723769458
5.5200000000000005	-0.12110719718841814	-0.17554659186639476	-0.1405954716796456
5.525	-0.13655285511281418	-0.06546210011909052	-0.18974324821192096
5.53	-0.13907785115087884	-0.07840077099399075	-0.12000679870626554
5.535	-0.24575801933514155	-0.08638219163890079	-0.1970142203316002
5.54	-0.21428860166315797	0.028240633489367978	-0.21607810480829243
5.545	-0.19025871642008874	-0.056377580156673525	-0.2096980053647938
5.55	-0.18098904784136063	-0.14361218733659886	-0.061488970298896176
5.555	-0.11777609515930229	-0.10295297890685651	-0.10466831383664166
5.5600000000000005	-0.09703009534697771	-0.034371977180131054	-0.14432696975812007
5.565	-0.1440083206319189	-0.08435318920121118	-0.015660160840376136
5.57	-0.24041930003746131	0.05061761963211259	-0.09349936618599847
5.575	-0.2774780806798783	-0.11152179828919462	-0.14331387003803242
5.58	-0.23576727426579772	-0.033771880495362276	-0.1617580073677216
5.585	-0.16129997982253932	-0.010717920880016461	-0.09033916748479572
5.59	-0.17752425267847388	-0.14844465911486304	-0.18767514542522679
5.595	-0.2105793769030845	-0.0036980970621412826	-0.20779087961706924
5.6000000000000005	-0.15037432678396834	-0.028916010876372862	-0.1225348200303573
5.605	-0.12654258194557122	-0.10584891501240946	-0.18242543882516826
5.61	-0.17292447003553613	-0.12424564105508037	-0.13417479875503865
5.615	-0.21769067442551632	-0.1004609852145838	-0.2046618734765859
5.62	-0.11485697506341457	-0.09448818725100527	-0.19372734950939655
5.625	-0.24539958090188407	0.014113069101971139	-0.08655387653477806
5.63	-0.235300485030825	-0.07967489857756961	-0.08307357915105146
5.635	-0.18413397659032055	-0.03952196218256539	-0.03621525613451676
5.64	-0.2583806139345329	-0.006130802663964936	-0.2519224475500115
5.6450000000000005	-0.1332964431884137	0.021020497645076	-0.13262540512247373
5.65	-0.23679134606562585	-0.04616636169440744	-0.21804311308922425
5.655	-0.11292123864627696	-0.03610149879598008	-0.13412693924181004
5.66	-0.15115992447248625	-0.029662998387839153	-0.19579629400436108
5.665	-0.18204517986607438	-0.013967471265636452	-0.1570958088698125
5.67	-0.10155780521420243	0.02752730971328985	-0.17747028775010107
5.675	-0.18276654373822754	0.037703131445854646	-0.2408794320699954
5.68	-0.18322779982735943	0.012607785784287798	-0.18906111307359386
5.6850000000000005	-0.23115676851938	-0.13061797670955652	-0.1599664103446061
5.69	-0.16567590208138902	-0.09684377112291385	-0.21322168312710216
5.695	-0.2812091031681606	0.054881520579620494	-0.1578714814926025
5.7	-0.19860924093900773	0.04298111179893353	-0.16962642093506802
5.705	-0.13383713742181208	-0.027825175279775436	-0.2311031347771212
5.71	-0.2455142227024049	-0.014752011580027254	-0.17806363576723194
5.715	-0.13103777976345504	-0.11791479650954761	-0.23130435870232618
5.72	-0.15786145939903945	0.021637905224731763	-0.1753251954057606
5.7250000000000005	-0.27321253905988996	0.015159718606521402	-0.10963454083515127
5.73	-0.19822949527711006	0.017957424740019434	-0.16116042066698733
5.735	-0.1706245976392391	-0.010016917659942158	-0.1817456093372701
5.74	-0.19956405985536094	-0.11781159807654878	-0.29477695793662684
5.745	-0.26505731135990185	-0.00463048219175094	-0.2103042559766717
5.75	-0.17642149520668793	-0.014015819068372615	-0.24434065221963594
5.755	-0.2188008768415835	-0.0015290441331278983	-0.1837585809947102
5.76	-0.07717258192107883	-0.03640322847098533	-0.2712275182591445
5.765	-0.17364663578763753	-0.10924029794360827	-0.2461837702907975
5.7700000000000005	-0.13308369008728943	-0.07313641916703775	-0.09492195355989907
5.775	-0.2334926229945315	0.0357628975272058	-0.3171208004560431
5.78	-0.21359876673317402	-0.012866132811777564	-0.1566070650343615
5.785	-0.23867599791297195	0.044462030439861924	-0.1117916948666994
5.79	-0.27812876959668464	-0.0343461029386218	-0.2027287192724693
5.795	-0.11176747678878993	0.028395972983526002	-0.19603387754348417
5.8	-0.18206377971191995	0.08841813208480016	-0.16640696674407143
5.805	-0.23794954321661174	0.019607840281561872	-0.2150710384712242
5.8100000000000005	-0.26474160347806514	0.03248319755749288	-0.21874157080858264
5.815	-0.23619023066025002	0.06756525273543265	-0.18054810170982621
5.82	-0.15677973256046202	0.11852356120591166	-0.21807965019404305
5.825	-0.1814714552160878	0.0024493800810450467	-0.1370500811731311
5.83	-0.2196421141724381	-0.010873452271743599	-0.2058341987825784
5.835	-0.24560939825086925	0.1001145264077251	-0.16567834758672884
5.84	-0.20800165095289042	0.06036744520062823	-0.14665329613851946
5.845	-0.19446048344279593	0.0633405867215036	-0.2036268510423878
5.8500000000000005	-0.2050888515249413	0.06007336433880433	-0.12719408763922407
5.855	-0.20210899885547154	0.0845657836819329	-0.18965965286661987
5.86	-0.14798175654737367	0.041395716872079685	-0.14909352981327373
5.865	-0.22052008278048163	-0.05291019250408181	-0.19003226860188763
5.87	-0.18756213179402564	0.04523848617983291	-0.20545298101625478
5.875	-0.3332734898071722	0.05430357921541207	-0.17285578827660225
5.88	-0.14887655729379554	0.11615006023784022	-0.17692167650201676
5.885	-0.316370407571673	-0.00011184549962123952	-0.24536887143740632
5.89	-0.20217902515002636	0.0874867458910785	-0.09132946545699737
5.8950000000000005	-0.16052351713412577	0.03586017807161998	-0.17498815182673882
5.9	-0.16695121205222688	0.014880733537382666	-0.2261819856224904
5.905	-0.15148145976616662	-0.03670423852582942	-0.31527244994480075
5.91	-0.24644796346247827	0.16802521442518742	-0.24885098088437232
5.915	-0.2199821541861568	0.08009112336492567	-0.11510354903666034
5.92	-0.16207190533443527	0.10217949311381821	-0.26435704192084225
5.925	-0.24313854761117087	0.09083923555182866	-0.16962551220066774
5.93	-0.24579207613896412	0.10768186716799204	-0.17402830852066795
5.9350000000000005	-0.21794317103927957	0.07661457360928968	-0.26982487561894813
5.94	-0.2548915563175829	0.011437900799660117	-0.23907887169079467
5.945	-0.17673278209041254	-0.07845470853816733	-0.15603677554398349
5.95	-0.2057417712255486	0.11366591723866662	-0.23558617008232804
5.955	-0.16599120026706587	0.1335377315727865	-0.21650736745973542
5.96	-0.15296597646407625	0.05539563015748888	-0.16796408008194186
5.965	-0.3043096700464994	0.08616167129185083	-0.18095719076752376
5.97	-0.256178852755374	0.07786544907936069	-0.20745765245649125
5.9750000000000005	-0.20933686378686497	0.056995346106417426	-0.12733198522555955
5.98	-0.1677812612683109	-0.012965901611133798	-0.18754684182310888
5.985	-0.2692093903127919	0.0834373632708565	-0.21296101234629458
5.99	-0.16111836991904352	0.0166561490935761	-0.18100614315313512
5.995	-0.16186086561211913	0.13123256510326736	-0.20433723492772826
6.0	-0.10815040359890113	0.018985223311323213	-0.2460728642824858
6.005	-0.19121646756573998	0.02078988082979455	-0.20423752017548577
6.01	-0.2795722081528653	0.19621730622224787	-0.23952271938566716
6.015000000000001	-0.21165739659726523	0.06063769111868916	-0.29330542345504884
6.0200000000000005	-0.1349257216499672	0.13683052102681334	-0.2762903729731651
6.025	-0.3055274925791345	0.052836872050107606	-0.1941161239991325
6.03	-0.19063873716202678	0.15143673061003565	-0.1833873521708596
6.035	-0.2839903810221282	0.05709368814299147	-0.13438468137189075
6.04	-0.179914592651487	0.02406651780742819	-0.14390900620914154
6.045	-0.12090779492926121	0.023937284591183078	-0.25817603302996456
6.05	-0.22377398615749255	0.08650757427190067	-0.2134040621468032
6.055	-0.2128676563014234	0.22697327445759657	-0.23153971882550192
6.0600000000000005	-0.23556027828504053	0.18559582360723548	-0.15481397208209788
6.065	-0.24754400697630558	0.09272343555039084	-0.10116351916880922
6.07	-0.1982888085077124	0.1002320100588137	-0.20429389801129386
6.075	-0.12775646732658286	0.15900506690850763	-0.2584253209058069
6.08	-0.21174401488230937	0.1633646515582396	-0.23731517773744412
6.085	-0.22051495501750104	0.12653405607824017	-0.19058072860634764
6.09	-0.24877105541552813	0.01437980198500835	-0.2323711509170188
6.095	-0.21467830030031743	0.16897515354373266	-0.15793690769997482
6.1000000000000005	-0.14269898654039925	0.11914113980501331	-0.2520124800454282
6.105	-0.1697571869206817	0.08200186887757785	-0.1594834595498496
6.11	-0.21548532268703952	0.08442092784037591	-0.23517013652552812
6.115	-0.20812945914964825	0.13305291437298652	-0.1109814961951943
6.12	-0.15346156527883034	0.1534677030274955	-0.170039799107555
6.125	-0.18538956668772688	0.11019892974374698	-0.17070849676935188
6.13	-0.19839757520825196	0.07869036666354287	-0.2072970385553512
6.135	-0.10311994256435986	0.14212271858934505	-0.17622224568445738
6.140000000000001	-0.1516121164682343	0.07296237224191973	-0.25654999535422174
6.1450000000000005	-0.07105685647691268	0.1885944531375651	-0.1352001009195017
6.15	-0.16220028946000778	0.17963710430050292	-0.1928415331647777
6.155	-0.19667347781842678	0.13043726837562292	-0.1331911767481774
6.16	-0.07264008267498157	0.2081450866039582	-0.2414113809176024
6.165	-0.25476874098663693	0.20545512168509547	-0.1931054137800427
6.17	-0.17882592569666034	0.16745440269015827	-0.19872914994629315
6.175	-0.1545630674112988	0.03300757858983565	-0.09906542849560836
6.18	-0.14289049879875723	0.13584331628175708	-0.2189010246978275
6.1850000000000005	-0.148940939088951	0.06920878692294213	-0.19343849975761981
6.19	-0.09903861774641426	0.12288348335798209	-0.19323959425150045
6.195	-0.14742621358958663	0.09305805290822779	-0.1422423831979553
6.2	-0.16182150273045387	0.19305672146785785	-0.23061378879489394
6.205	-0.18943520284794926	0.1822780507317302	-0.15913779729028818
6.21	-0.16851293335747633	0.1982908275805588	-0.13249593437312354
6.215	-0.1424424237386949	0.2542455007598444	-0.19559953049065607
6.22	-0.20799573631096893	0.14663527999643022	-0.19359765922577818
6.2250000000000005	-0.14081678573140943	0.19325432193172876	-0.15894716322296648
6.23	-0.2659019439330677	0.21878582229359445	-0.16180580349980486
6.235	-0.15093810006970865	0.24931896119224234	-0.17524255431223917
6.24	-0.1354026889961442	0.13683929042227594	-0.146440951351155
6.245	-0.08766808257881464	0.11103823135343319	-0.1421112021926028
6.25	-0.10488746128051782	0.11985478141363107	-0.16096378673532574
6.255	-0.09322372267996584	0.19332697314327527	-0.26834094326691355
6.26	-0.22180891701524477	0.20661762849365276	-0.15022894966736677
6.265000000000001	-0.10649139881687181	0.10746898517688097	-0.17932758583275532
6.2700000000000005	-0.11905527052958609	0.10619831755361357	-0.187900964696425
6.275	-0.12072490861716685	0.17195535784650848	-0.19161844812405332
6.28	-0.10923357789608902	0.2325365812853635	-0.11730740331131892
6.285	-0.17853153444423275	0.11795497486635065	-0.1698528044662483
6.29	-0.10015267710880804	0.19710709828780223	-0.1789064394769308
6.295	-0.04350524546671193	0.14334113212518723	-0.2115157431493476
6.3	-0.19585081752850841	0.17471709373907937	-0.18974941478535695
6.305	-0.16887023108866106	0.29254331959088875	-0.19688347425681915
6.3100000000000005	-0.13314341331316093	0.13407132176159417	-0.23774524641808342
6.315	-0.08043119641292387	0.20777711794528905	-0.21497981695640722
6.32	-0.11106204438976958	0.19448424594245659	-0.20937013593230058
6.325	-0.16934481379604913	0.13535552249316407	-0.2289717928471276
6.33	-0.038155809074184255	0.15035370256088235	-0.06915868766431663
6.335	-0.1156367402269204	0.13763923045645518	-0.10556556745615335
6.34	-0.21330847195687813	0.1618779511263208	-0.1651317671482322
6.345	-0.09222144064150292	0.235725572853066	-0.2502980601360292
6.3500000000000005	-0.1534543697777728	0.18245939296391708	-0.18884822730385128
6.355	-0.08880084422197917	0.2240134254862219	-0.1624874728023715
6.36	-0.15812171126661698	0.23714959598788404	-0.11239519455955604
6.365	-0.11027355739797257	0.19541405637588938	-0.09271779583789899
6.37	-0.07209523726273356	0.21173024665894893	-0.1853866078677487
6.375	-0.17175651134747677	0.11208538932354693	-0.1632535754178977
6.38	-0.15969241071187323	0.1807169743535373	-0.15812185945378837
6.385	-0.11396038425561504	0.18645012963814436	-0.270772004474676
6.390000000000001	-0.15887514691072563	0.22219296244429781	-0.18584795161581455
6.3950000000000005	-0.15297715075192891	0.24933712709561306	-0.19209862492535168
6.4	-0.0721924982563919	0.2399477143692294	-0.12323618944127115
6.405	-0.07124407593261002	0.14863154529531947	-0.1151223760809164
6.41	-0.10940415607347655	0.1703473342132745	-0.17741213478592305
6.415	-0.1392055337683451	0.10578914055990585	-0.13885871945510567
6.42	-0.1531807593480428	0.1850832032326261	-0.12163220099334991
6.425	0.012749120538780634	0.18857920407055778	-0.14786220607105732
6.43	-0.025089452005643866	0.17098816291969005	-0.20778720064198908
6.4350000000000005	-0.11262453945160392	0.23171527128335517	-0.10776244537912184
6.44	-0.01270034226423028	0.19728263673274973	-0.1688216323474472
6.445	-0.1030686525206462	0.21153540164711215	-0.15320891111586388
6.45	-0.12692450575980002	0.23928983982701602	-0.1664148663327151
6.455	-0.04299662679062424	0.1026086133342692	-0.1352010925724638
6.46	-0.04804931463804224	0.15712099578088934	-0.1961999239670369
6.465	-0.11048478672385315	0.2337472962408923	-0.135580078163639
6.47	-0.05898750693222307	0.11641827392937512	-0.17429528413222162
6.4750000000000005	-0.08158798817793711	0.26143513814966407	-0.11599051238470905
6.48	-0.1770235780704208	0.21145672959157202	-0.0983672861607702
6.485	-0.07127701069714297	0.12379663182919985	-0.020815937662037265
6.49	-0.0635782525799982	0.1778626283453102	-0.21465072727479254
6.495	-0.10049580451234057	0.06704543066149882	-0.10730284104521631
6.5	-0.017768403578998948	0.23435391103767084	-0.12230876425601142
6.505	0.06165387602041149	0.22681393706710581	-0.117299737414972
6.51	0.03333707708054173	0.18405880946878567	-0.08276350924595617
6.515000000000001	-0.11857341642713734	0.18633063077417036	-0.11682471247046078
6.5200000000000005	-0.06375349398058189	0.2708746563865599	-0.060892017283603786
6.525	-0.10583630624193774	0.24070756014606243	-0.15778035576912586
6.53	-0.14003908005361265	0.189249353842671	-0.11499116881349096
6.535	-0.08339254837406787	0.2555537968518962	0.026240329546100685
6.54	0.020429820621896654	0.19494863773602447	-0.08569066086411495
6.545	0.0491494302945952	0.16985189000122386	-0.059556264756613866
6.55	-0.13270139234604977	0.12740034838872366	-0.04496267527812085
6.555	-0.05465719074763581	0.23773974842986575	-0.04883796435407255
6.5600000000000005	-0.037981204257383945	0.23049636767770199	-0.14293589940904283
6.565	-0.017383534090310654	0.14468297848724274	-0.10615679413317378
6.57	-0.03152281607415998	0.06841692416367501	-0.16700652488587409
6.575	-0.03562323664896717	0.1724802211593607	-0.18470497041975972
6.58	-0.013964435015271063	0.23613635989751344	-0.1206292057223696
6.585	-0.07553753329082984	0.22605330786428976	-0.17096933693703759
6.59	0.009070038630049758	0.06004653128420365	-0.162611547518914
6.595	-0.024193355507937005	0.21158431827301602	-0.14361496191570408
6.6000000000000005	0.035877548853146236	0.2047791616883615	-0.1436077578401508
6.605	0.013153133902037106	0.21311927556565757	-0.1485398586879296
6.61	-0.010698872981990236	0.12439993551129805	-0.08253257838171038
6.615	-0.04847022098808611	0.14245054269816537	-0.0995990588597801
6.62	-0.05099132110179813	0.16492572644899506	-0.13275150602204253
6.625	-0.03306804000683533	0.16105415101581194	-0.12110114185931323
6.63	0.0018758917460827904	0.15648776589400856	-0.03414809764448681
6.635	0.05731045861410053	0.23763109149045047	-0.03950950088912356
6.640000000000001	-0.0009579219198741374	0.15027470259485962	-0.1345026274658508
6.6450000000000005	-0.0314452197240849	0.1885236758767208	-0.0652541838755036
6.65	-0.03200727683144222	0.21419963070011017	-0.062326282212125175
6.655	0.07938487904921426	0.29504267955362945	-0.12489893289256782
6.66	0.10609356989202032	0.19346547016149082	0.03299516871781115
6.665	0.05404587001788389	0.15370667307591648	-0.04384451258651047
6.67	-0.001109776709639921	0.13265571018552116	-0.04818240707206049
6.675	-0.03199396715927764	0.2464432798658387	-0.020838711572732857
6.68	0.00409879414278212	0.20666249390948707	-0.05781590902285487
6.6850000000000005	0.0044695607599992936	0.15700772937511645	-0.04542539627419512
6.69	-0.012727489968125545	0.14454108679286806	-0.14807505722696168
6.695	-0.010122146963705378	0.2400678706473699	-0.0650208691397301
6.7	-0.005263581214768774	0.16940499977474427	-0.06963030803746165
6.705	-0.048044584270492595	0.2173418932062523	-0.10823510106569542
6.71	0.008275583154306787	0.10248146108376116	-0.045326732517278014
6.715	0.06040907142183051	0.16402800335594528	-0.0421499807620005
6.72	-0.0034763603629355787	0.23081180840266305	-0.009795480221096671
6.7250000000000005	0.02192940227158072	0.16769990524000233	-0.035516409082919476
6.73	-0.013876429118250905	0.20668850979993897	0.021422947034250718
6.735	0.028512130651839444	0.098317120401618	-0.06782356717810796
6.74	0.05469269884361086	0.17407623732125999	-0.029660171615737314
6.745	-0.003907916945527275	0.150614619646596	-0.07150045549447766
6.75	0.008559385320978923	0.17840598809959923	-0.07399053774527328
6.755	0.03164240011589593	0.09571652406698322	-0.03786073229412998
6.76	0.03959731708451715	0.21298612678461593	-0.0758103783394059
6.765000000000001	-0.0385061642360346	0.21895252993905753	-0.028485294252342537
6.7700000000000005	0.0786633649071424	0.2236689240159898	-0.07467991007804699
6.775	0.06814605962854603	0.1449974046426325	-0.05073052919793438
6.78	0.08204916135441007	0.18086486696201337	-0.11907126444011018
6.785	0.04401665928936279	0.19269486592967405	-0.06628835482549747
6.79	0.050141916570121195	0.16997968323722237	-0.03981334259151743
6.795	0.047549032654946324	0.22982207763634202	0.08352548879515045
6.8	0.06457748543507186	0.13412017389403924	0.009502375975137138
6.805	0.0556150229241665	0.14431776549123268	0.013211829954320211
6.8100000000000005	0.0012345341867322987	0.1361988415868405	-0.013538244386228356
6.815	0.05129396891507716	0.1907010642338064	-0.045117159077429775
6.82	0.08474307528828302	0.1916083509502212	0.002985900891422647
6.825	-0.012329411003987524	0.18724020015704365	-0.058961932232714134
6.83	0.04355928548006315	0.15777628290587611	-0.07731324116286076
6.835	0.06622128230779102	0.21123630743861213	0.030570467080213173
6.84	0.13162762079005055	0.10791975756840141	0.02972320899806133
6.845	0.13897465301491646	0.20503809520447636	0.09104607212442885
6.8500000000000005	0.15154733775209855	0.08983313407501	-0.003722049718307936
6.855	0.07163469982697922	0.1018382971106955	0.022383365123413823
6.86	-0.013460531636558401	0.19150764295367337	-0.004972255320450597
6.865	0.06260974385656042	0.09534719163910066	-0.11035046363826383
6.87	0.06999981546020173	0.18748900102775323	0.013758183678360035
6.875	0.05295007610780078	0.22220559847024224	0.054421566139264035
6.88	0.07417570576906797	0.18192266157280532	0.028585519124537072
6.885	0.018737396834412647	0.0989116747889511	0.015477424289385162
6.890000000000001	0.07014343587363206	0.12238792282771116	-0.020708778960195573
6.8950000000000005	0.038482167764992914	0.15837684641143485	-0.006196324175207477
6.9	0.17545305184760623	0.11249105228190759	0.06511321275793883
6.905	0.09872443340563174	0.07110583714614523	-0.036516502904107684
6.91	0.023568055077305014	0.17511969044753933	0.053208017037969124
6.915	0.20852441849709485	0.1539199334619708	0.09031372189458974
6.92	0.0609585009971909	0.13966564178062582	0.008490683087351339
6.925	0.03957687576112598	0.19091700865502503	-0.031749077928333556
6.93	0.06053640399808514	0.2315732772828199	0.01932614754658693
6.9350000000000005	0.17697059513745964	0.15240145195357752	-0.008314861190700379
6.94	0.09565291705196821	0.08301819763667496	0.08973792360548785
6.945	0.07783730087512397	0.15148838009816906	0.054176309107633935
6.95	0.014843236406273413	0.14720114095171394	0.02546965817696896
6.955	0.1730977894355304	0.17661324053456792	0.12489943871791773
6.96	0.17582588869853097	0.07934033908617245	-0.021632109276710103
6.965	0.05555900700447583	0.1147045771047386	0.03163457991748205
6.97	0.0825110446841135	0.15016722105536423	0.045872176108644205
6.9750000000000005	0.10568061172688316	0.14532126663427286	0.058701585967757104
6.98	0.14367282938565115	0.05555436817509721	0.07047555157521933
6.985	0.06450338456938846	0.16004248798682563	0.007653598092801153
6.99	0.06954313117058422	0.09592730935944574	0.0402258611182326
6.995	0.12020399941896373	0.1481977371890797	0.048366557051208514
7.0	0.06186965827825554	0.055408544227312645	0.12003955007850328
7.005	0.16796629454342812	0.14015628954813608	0.04676683562785343
7.01	0.18570691270385514	0.08298371892902517	0.0034855098109441915
7.015000000000001	0.10843760953175455	0.10473634918495633	0.120534127397486
7.0200000000000005	0.03721120877958613	0.05669794552354244	0.09790276008306908
7.025	0.06994899860421991	0.06322280668937746	0.11159050749725863
7.03	0.16462104089510307	0.06569069187496471	0.016184760121183743
7.035	0.12562179060402118	0.09619932991317198	0.12509834539436088
7.04	0.18023254210097914	0.06483720574657567	0.06456472742225627
7.045	0.120187183133279	0.0765531811702781	0.15465558055383025
7.05	0.13472035192395385	0.11751175196760774	0.025931405542111763
7.055	0.17052735380523695	0.23724203880085254	0.013394138081610954
7.0600000000000005	0.11750854790701051	0.13903752390347573	0.018428809660731744
7.065	0.040131140671363114	0.0752600445633669	0.03381434928312341
7.07	0.14474519477950337	0.1502488949247273	0.1229815683956276
7.075	0.06941471100190433	0.14686426235812763	0.07510894779718755
7.08	0.11265492752667826	0.07585045471747298	0.0659089322400355
7.085	0.18599208618120422	0.0590522350920247	0.03567328145564887
7.09	0.14356336946723516	0.10045756752827405	0.13362921686449053
7.095	0.09334037962139916	0.1118663821150718	0.09767291224221053
7.1000000000000005	0.18830002366530665	0.04959497585953485	0.08038801526748454
7.105	0.19068876364081638	0.11232281501068322	0.140806132224225
7.11	0.15446160668847392	0.029780065769448083	0.09758608504749694
7.115	0.023040091430272303	0.05269846534440582	0.07737841250191524
7.12	0.05023477093462031	0.058857139097539195	0.0584463795326262
7.125	0.2235204866192911	0.10858003243024342	0.10512273934694204
7.13	0.16661745132038233	0.03913106294014849	0.08676092949280173
7.135	0.17736675969425425	0.035609807893835194	0.06285523261136353
7.140000000000001	0.14854155194534505	0.14288157910180826	0.04734043923518252
7.1450000000000005	0.1385528149465992	0.045649628393776065	0.037763159693410306
7.15	0.17304630464317805	0.019353530494615294	0.1803706463414186
7.155	0.2043441451296184	0.013494865521236785	0.08914549131809336
7.16	0.18756343034718084	0.04149962217846875	0.07120625655864392
7.165	0.08309697857423924	0.10827501081939858	0.03660467918488654
7.17	0.2095784105509751	0.09705759163526276	0.0872790150975747
7.175	0.21092302986846775	0.0010456546793489174	0.17469853957682238
7.18	0.10708005092088982	0.037846084003432603	0.08926609694877762
7.1850000000000005	0.11825827353860102	0.09104039520780456	0.13857236732812864
7.19	0.1280068901760805	-0.050654243916429954	0.10377002359851077
7.195	0.193920104631754	0.010320251061889683	0.15376131893617995
7.2	0.17822524834671113	0.03947329889345663	0.21029850099960642
7.205	0.13997901544346728	0.0077927529674668705	0.04565679882791357
7.21	0.12268585455366227	0.13676994877107773	0.09740982662579184
7.215	0.08743280382245346	-0.005408854769746493	0.1332021637320109
7.22	0.15608458894770727	-0.004670114061549081	0.11519926645641047
7.2250000000000005	0.24156679334841188	0.16374961270088428	0.07870257798033148
7.23	0.086575355994054	0.049999771575561625	0.07406235503560493
7.235	0.18669745785958705	-0.032375540184059116	0.15524968659035296
7.24	0.1694029297993064	0.047609669999969954	0.12843578549613832
7.245	0.17078369769473978	-0.05045100232409215	0.2118644095544151
7.25	0.2672243083664352	-0.025428498026153996	0.08971060173606928
7.255	0.17778000909671957	-0.08693187024991639	0.09311296634156985
7.26	0.14971600358280074	0.010976943042700298	0.11776315168523985
7.265000000000001	0.17949852548715342	0.023181776742017046	0.1484454177903389
7.2700000000000005	0.17139526087272272	0.07421229424604496	0.17454255888054893
7.275	0.23385607603109285	-0.018933831723345524	0.09628430173664668
7.28	0.09515048869198114	-0.025940064208504837	0.14689429046291844
7.285	0.12742070583155402	0.025746793740465058	0.0840268819930311
7.29	0.17243432423422012	-0.021980747132133376	0.08724143656275138
7.295	0.1881135606043016	0.033264551293007205	0.1434776888016685
7.3	0.22786875131598228	-0.003067159273855922	0.05489164220144922
7.305	0.11660595016030223	5.4689706319933223e-05	0.05453367398810054
7.3100000000000005	0.1674515227954554	-0.026071894102629705	0.16768905435671183
7.315	0.19727319520917785	-0.06165966153304108	0.16375554976488751
7.32	0.1914753452622338	-0.026224073869214437	0.20802242999585113
7.325	0.1671387620841568	-0.08051452174679216	0.10935486904946756
7.33	0.16139127709752885	-0.02233776461350946	0.12191924569929666
7.335	0.1269187834660001	-0.012652354587485317	0.14457225772695295
7.34	0.16832479985389368	-0.13795008166093295	0.28965110649797465
7.345	0.18651117984502147	-0.034277126273909296	0.17382910322270592
7.3500000000000005	0.2510935531870251	-0.01633080694159581	0.1979069165910793
7.355	0.20648911172854195	0.014527404798909856	0.13463742769395132
7.36	0.12891855598626034	0.007750922053861357	0.1360409048217498
7.365	0.25936453824221295	-0.03964442777226623	0.15662071403474578
7.37	0.16302351037783142	-0.050302854075859396	0.18657198420092713
7.375	0.22712214649967358	0.0020819535933314197	0.1352295074532464
7.38	0.1921581458080409	-0.07835321584842922	0.17927714857598975
7.385	0.22806861709994847	-0.1467754752810387	0.13710127367547764
7.390000000000001	0.1294452576845168	0.06338888469315737	0.11074789930677253
7.3950000000000005	0.21094034216111285	0.02541553008125006	0.15758205493692498
7.4	0.11777853536491856	-0.11647868778929316	0.23398852010368976
7.405	0.1673793351546609	0.06114167267336201	0.1525916288890122
7.41	0.16129875403541205	-0.08457513699713815	0.16163459940028135
7.415	0.2705817934312822	-0.06169168531158625	0.1484736848374934
7.42	0.279546421858911	-0.029683761204614793	0.18298843560840847
7.425	0.2105216425676632	-0.1137485080160909	0.13145461096173489
7.43	0.23822722574330799	-0.04532032872238375	0.2557409802551409
7.4350000000000005	0.2642234651094398	-0.02933115967332887	0.09139545577498812
7.44	0.29860029334456467	-0.06805762928250612	0.23691497522995228
7.445	0.1642028347505983	-0.08581116640545872	0.10822749772138121
7.45	0.12784353597590598	-0.07240163433458917	0.188715720613994
7.455	0.2075840911761666	-0.09694362441607796	0.1803071366261935
7.46	0.25208203685029995	-0.10540724840690871	0.22184333726538152
7.465	0.24019349590313926	-0.07077747663317532	0.17016895508280483
7.47	0.3029759234718481	-0.09195327771948295	0.08033347970111841
7.4750000000000005	0.2742108165306994	-0.008070538010842947	0.09360814439229435
7.48	0.1851396887804195	-0.08246960727239697	0.20522387425153202
7.485	0.23281713977768334	-0.08529733054511968	0.1728164658247896
7.49	0.11473081238705328	-0.07483104251375927	0.14656843515878795
7.495	0.20672531696897084	-0.12735029997573838	0.18025251077941282
7.5	0.24000262355905588	-0.05058430846109134	0.16669289492662895
7.505	0.2177100062091854	-0.15459554424999117	0.21001567858606598
7.51	0.153933239716367	-0.11233242862451692	0.15966343459264692
7.515000000000001	0.11286458978365069	-0.06449321923834836	0.1293913282968948
7.5200000000000005	0.20893961771981692	-0.060742413927947776	0.20045953482668863
7.525	0.15993466501112216	-0.08610634356864945	0.11161983848258218
7.53	0.08186366125276152	-0.04346421876407133	0.20733911305250713
7.535	0.23907461326663557	-0.04895361873685071	0.1866615352940774
7.54	0.1777530632843255	-0.06216790414717058	0.2081053909557139
7.545	0.19639757843318287	-0.08238644835475604	0.14649345806829223
7.55	0.12582133420396635	-0.15499700800132915	0.2347371335826328
7.555	0.14108692545202284	-0.14868848153638925	0.1495960215519226
7.5600000000000005	0.15352366179396218	-0.10421581600474607	0.18050555183328268
7.565	0.2232249316921256	-0.11514243175092395	0.14923239586011128
7.57	0.26324832759205613	-0.09755653614653015	0.17972488401358805
7.575	0.1929400111791436	-0.11888275431480724	0.20321854789540025
7.58	0.24547280505910823	-0.09209919228684853	0.16161857630534118
7.585	0.27992694216912994	-0.04856162299629217	0.18555891853357243
7.59	0.21667157743795878	0.0023826126942065318	0.18225265311779693
7.595	0.15998509117912724	-0.04872637499690184	0.21109811658126262
7.6000000000000005	0.17529738389525776	-0.093219972243313	0.20382882055233895
7.605	0.29226034032008635	-0.18480711301766464	0.22673292071717865
7.61	0.14811889305557643	0.011604524812974581	0.12449008446520651
7.615	0.17575792693577344	-0.12948890327592502	0.11101098681816175
7.62	0.2021874960717099	-0.14995263586871455	0.28058141025343597
7.625	0.16874627005490817	-0.11154122258374351	0.17243555184157938
7.63	0.2000273774036126	-0.18771551035047118	0.22728993074669243
7.635	0.19389605738468194	-0.18528975338107934	0.18442092223933082
7.640000000000001	0.1817077344534303	-0.1511518849818856	0.22671474423945465
7.6450000000000005	0.14840447258610082	-0.11496556732335161	0.23868953134213033
7.65	0.0926195406242039	-0.12081751787053534	0.252722336900146
7.655	0.11395375754313605	-0.06340059712021419	0.2652051965745937
7.66	0.2913590528684603	-0.2220093411500508	0.16676283760782873
7.665	0.2955609877893649	-0.16000801678755278	0.30305801789542414
7.67	0.16068264199085802	-0.12644610979126977	0.24595787397627122
7.675	0.07047378865061016	-0.09394659028079005	0.2901896257619015
7.68	0.21885666446409474	-0.13611171237220068	0.07618974712314432
7.6850000000000005	0.22639888974131567	-0.19507889701152797	0.1868358173675733
7.69	0.1700959424127596	-0.08226938176799876	0.20663650936841843
7.695	0.15579762554418283	-0.13854436919137655	0.2315672088544232
7.7	0.22172628355473536	-0.19824307117707451	0.24409500627544709
7.705	0.1475437465585839	-0.10272018499058508	0.21321372690814513
7.71	0.13477251791514488	-0.13959606536613564	0.21455952095057876
7.715	0.15576706048248815	-0.11271969827161282	0.3056819182136428
7.72	0.27175779329244065	-0.1828647330980054	0.21715227844250526
7.7250000000000005	0.22404895090542504	-0.1661828956055065	0.22787029504403256
7.73	0.24189513306729	-0.15000282869855586	0.20691463155399611
7.735	0.13155345815905126	-0.20245176412298216	0.22107128433757678
7.74	0.07256328380645408	-0.22076072512062406	0.22942753645361091
7.745	0.1968406818003632	-0.18040784875934976	0.23187780525490287
7.75	0.2786242465887499	-0.2258461290325387	0.17583376570694093
7.755	0.20516871018797778	-0.16446876610077862	0.1164461528233939
7.76	0.16789676094588696	-0.11194717414141836	0.15116335849616558
7.765000000000001	0.17889702951477615	-0.20464055100069486	0.20688311927127603
7.7700000000000005	0.1517495599498638	-0.10907394460523928	0.2833114644580407
7.775	0.24952636201772369	-0.1929341495992841	0.09544659024255399
7.78	0.16985899022841974	-0.17428667978376616	0.17647147025377277
7.785	0.21164442038368433	-0.2216728837485552	0.10004248052285242
7.79	0.2220079064332897	-0.2055161933549495	0.2659817936911529
7.795	0.16059494132723204	-0.17140905475066848	0.20028325038410863
7.8	0.12896969384360907	-0.11919991189131648	0.16848604631327635
7.805000000000001	0.18818032020586484	-0.16953650189582734	0.18321173922824138
7.8100000000000005	0.229147204147123	-0.10883746752406537	0.12613459843492827
7.815	0.10143529870312326	-0.17071056984699567	0.26150284972752413
7.82	0.22629850783392955	-0.08909757491029502	0.24419881391916742
7.825	0.14082078281299715	-0.15279873915340741	0.14848904403527938
7.83	0.2155210539779581	-0.21838830339167728	0.2273716552181757
7.835	0.16543708335967647	-0.21491342782461106	0.22047908405534664
7.84	0.15089850387050738	-0.25027081885654456	0.11868909981393361
7.845	0.19306576796541924	-0.14625418404305598	0.13089300786401667
7.8500000000000005	0.240972156095278	-0.18489618657628182	0.16370715806197988
7.855	0.118387260582254	-0.13670635952758436	0.13609439502824489
7.86	0.15676076219337096	-0.17472420281861833	0.19145188343051564
7.865	0.10899284383745408	-0.13013410388888735	0.1868473992002542
7.87	0.1740249012215838	-0.1650574818803551	0.1366822932063467
7.875	0.08610149866555449	-0.11562629927756786	0.20525746210800194
7.88	0.16249226701331487	-0.08792085612587516	0.18480702987474382
7.885	0.10041832802484624	-0.18982014975232772	0.17091792752219268
7.890000000000001	0.1144663902685786	-0.1512556914604923	0.20549923170591886
7.8950000000000005	0.14214259634446372	-0.21207790704047116	0.23142440185260083
7.9	0.2894727651308615	-0.1643653938718576	0.14128338571028026
7.905	0.0540058961985244	-0.21484830881782777	0.20661054578911212
7.91	0.11319851629750541	-0.1564611804254643	0.19910690798057232
7.915	0.16023067801691576	-0.17284725557841657	0.1818483810672829
7.92	0.09265792695460325	-0.14462871270632713	0.10334251672696684
7.925	0.2713629941367469	-0.17724123992717677	0.19072865470371927
7.930000000000001	0.16163865645750056	-0.20143406950822398	0.21547263846919457
7.9350000000000005	0.06441118775417871	-0.20564251516220441	0.24057086054386603
7.94	0.022866110077130006	-0.20504809233845547	0.1615390743047011
7.945	0.06400487123494661	-0.19079870318328776	0.18864640668182994
7.95	0.08999785412063405	-0.29243348213094733	0.2392766178541238
7.955	0.14984017433912736	-0.22965163256810583	0.14088225392872322
7.96	0.14228618270256446	-0.15093670692099317	0.19717429360981126
7.965	0.15821654493879805	-0.19511107367637348	0.19661708473639988
7.97	0.11389478426067816	-0.2555018744317597	0.1875821061760789
7.9750000000000005	0.13140278408990438	-0.233436355391242	0.15331968408557542
7.98	0.17225343006240718	-0.16171554480730344	0.25262688294488433
7.985	0.05733450735960485	-0.13586639304022996	0.17169756936467495
7.99	0.020381908072650154	-0.27811872941323756	0.19180519652604414
7.995	0.06912820352821222	-0.17207122445230835	0.1583714130397486
8.0	0.17769078567794755	-0.20460396191833236	0.2831322126983278
8.005	0.05492358031197979	-0.17930050459293673	0.17548714807351876
8.01	0.020123048009979647	-0.21849738469960941	0.20849809009081474
8.015	0.1293021412880283	-0.23101523446960265	0.26679808630746055
8.02	0.11620591845009295	-0.23705426874999244	0.2253674322160668
8.025	0.08604187822276259	-0.16079739839261784	0.21563413651872207
8.03	0.14172175754614422	-0.16129028856889877	0.18895405349063413
8.035	0.011773874220367755	-0.24365245114396908	0.1806392111037594
8.040000000000001	0.17404042938462044	-0.24155218718597327	0.21135307470781262
8.045	0.11977801498145646	-0.15021124411154235	0.21387857491825668
8.05	0.09518867818839134	-0.2847222886395676	0.1262599167433538
8.055	0.08718984185451133	-0.1744831798671786	0.12035624026106866
8.06	0.07375446510409518	-0.15280879757565774	0.1587617729789932
8.065	0.07400847921831695	-0.1024133659266501	0.23192468225912097
8.07	0.02808257472853798	-0.26687105024751034	0.18958338947834613
8.075	0.06700229897973548	-0.2576799363157547	0.220295493112166
8.08	0.08106118381069656	-0.24500770269021996	0.09176875187776784
8.085	0.08321122987360809	-0.21917708726723786	0.3046314177716132
8.09	0.06195696595548887	-0.21843956888872929	0.14187967323293263
8.095	0.09535920173995258	-0.17195404530172154	0.20401562599413398
8.1	0.10933999169303056	-0.15121295906395826	0.18908680348303913
8.105	0.07122691132797	-0.1772073364283812	0.1700803824457953
8.11	0.06461791298500147	-0.1969751453404463	0.11122390824237452
8.115	0.09776753277948705	-0.1576284454929961	0.18117528975128822
8.120000000000001	0.033629732712107764	-0.09884509740377365	0.19765772092141626
8.125	0.030735997431017258	-0.21557759724816336	0.15045628049854295
8.13	0.039266278546312164	-0.18697395659243482	0.17021493069916233
8.135	0.017635540793177286	-0.29070790780787	0.12694704404714113
8.14	0.01922306821536851	-0.2657637026232905	0.15881839717435808
8.145	0.07245813076675682	-0.28467625891940374	0.14886075260265108
8.15	0.16720367307018752	-0.14728577007312546	0.09076773827125142
8.155	0.09565615830448873	-0.22762223216479283	0.10849956805163341
8.16	0.03259289950750455	-0.17984919347924871	0.07066227482110252
8.165000000000001	0.04587846254024369	-0.1678411705112834	0.15523808413780404
8.17	0.10428820237618852	-0.15116027255234438	0.1311335297964386
8.175	0.0013192845526703093	-0.18821547053569795	0.1476057514537848
8.18	0.062240908437630506	-0.20796936215754577	0.11669843970891458
8.185	0.12443380893222822	-0.1699342142768552	0.12010547743667864
8.19	0.006253204926372893	-0.06839756801490116	0.1239898550191088
8.195	0.07240553361251165	-0.1634541506923118	0.1159096453619741
8.2	0.08328189564125074	-0.18179493853081477	0.14978076547826422
8.205	0.0687809859785759	-0.17286649010244182	0.14339161612946744
8.21	0.09252630458938953	-0.17642939318087053	0.17020458013670953
8.215	0.08300730104293191	-0.21941667383864263	0.1040363544781816
8.22	0.0931788260696089	-0.28277358398917507	0.10401374977810754
8.225	0.1439014016950418	-0.2899106466624969	0.07420639508971458
8.23	0.04187171793864173	-0.15477504060552588	0.14642376178288527
8.235	0.08343520734140386	-0.24587112113270715	0.11238793377216288
8.24	-0.014577823593887491	-0.1681521390846139	0.10615205169157386
8.245000000000001	-0.01237373956058628	-0.15555589973801426	0.18906869508945093
8.25	0.08509420359372571	-0.2353162395950918	0.23518836716694072
8.255	0.01857895334696464	-0.13167615736370067	0.1557902860852261
8.26	0.054515516371042315	-0.2565096574186111	0.12043268843196678
8.265	-0.011482435990848902	-0.17751144096009228	0.012547588449412797
8.27	0.09037561129960694	-0.17418517990140886	0.14282911233267065
8.275	0.05767542490312205	-0.1918211566842143	0.1715264918215779
8.28	0.09666088158723941	-0.24723358294648642	0.2404534821011607
8.285	0.014710977127984779	-0.20991879473083763	0.18519599836696532
8.290000000000001	0.05609238338220046	-0.1888708334392302	0.10872202108224373
8.295	0.02948524592251478	-0.2268037987800442	0.07374313867380618
8.3	0.08922920076455743	-0.2302854820184854	0.06932021457735521
8.305	0.02035340098584113	-0.1543127724930115	0.09797939554679708
8.31	-0.033021609946419485	-0.2203906109365241	0.16615336108100368
8.315	-0.011284737563466225	-0.21630977386072958	0.0878984034955648
8.32	-0.0374276911870238	-0.26327648164823486	0.042895525410112934
8.325	0.10400668400749122	-0.294352953680957	0.048788558243241596
8.33	-0.010464119376011976	-0.1256620798649474	0.10649403962856542
8.335	0.011629302204901014	-0.1920721850766633	0.07599397450846523
8.34	0.013476633543468392	-0.1833663449625507	0.04694404771656182
8.345	-0.02426738281373436	-0.21692631471959933	0.10163356899772183
8.35	0.03266120494916457	-0.21995872952367068	0.037235079441366024
8.355	0.04066448644463074	-0.13534092015201002	0.07794044721590607
8.36	-0.07531952497157203	-0.10438225019718818	0.0869573410432139
8.365	-0.06868053438617669	-0.1330224943554499	0.0816460490901413
8.370000000000001	0.01730635566006228	-0.17965340081681475	0.13894366812455455
8.375	-0.01774851932991371	-0.1415070457407712	0.06318590304015609
8.38	-0.06617328380418518	-0.17703249410079408	-0.0055608899788238825
8.385	-0.052348955687248185	-0.11497226440341035	0.2005639982156338
8.39	-0.03644967093749747	-0.18180645781364269	0.07061772862491099
8.395	0.019489489876100045	-0.16157997252081394	0.01833031646224917
8.4	0.06652996151992319	-0.2572343879727768	0.15509427820779087
8.405	-0.049537897693838026	-0.07359485471662958	0.13542190023124756
8.41	-0.04952041493749479	-0.17951734895443322	0.05959621024259079
8.415000000000001	-0.021680978505365676	-0.09247431883579739	0.11538411963515885
8.42	0.03322476741479408	-0.1601471764686189	0.08257937236149135
8.425	-0.06989027924714308	-0.12362709079588054	0.025275159991692144
8.43	-0.006081598507065716	-0.1646356656184074	0.05034996087890135
8.435	-0.11002720574493222	-0.1273424187455457	0.004627320809775959
8.44	-0.030770024686354085	-0.22740837471133463	0.1321850384862936
8.445	0.021459793388413348	-0.18056252390292835	0.04666662798583875
8.45	-0.03884421238543577	-0.16587008645142623	0.11042678197494249
8.455	-0.12894067648485613	-0.16209872149969173	0.052275818260002334
8.46	-0.09358563506770566	-0.07545743805019024	0.03803366865670463
8.465	0.012859469484014702	-0.1171898326904473	-0.03143464228490559
8.47	-0.11957415880644431	-0.14983593763763764	0.18077435498538524
8.475	-0.011945668320177474	-0.17069872647259357	0.01673027443798323
8.48	-0.15196720880644815	-0.13032213193180173	-0.010521567200984135
8.485	-0.06088719008168641	-0.15977601610928194	0.0444063631741047
8.49	-0.16736073660182837	-0.23342007931575492	0.08546382923507076
8.495000000000001	-0.19072933328683628	-0.1821976828426491	0.11447802397780393
8.5	-0.10861373331632382	-0.1936576771388687	0.10360855955867138
8.505	-0.0287706806313553	-0.15108746578009252	0.001644970426945093
8.51	-0.05066865956446024	-0.20719148547104949	-0.005976938994520599
8.515	-0.0472631881495815	-0.07539319840529934	0.0190222584885606
8.52	-0.04990628155411296	-0.09006584392128114	0.11123863147779386
8.525	-0.10472368518812811	-0.16868197151570669	0.0068006949477412496
8.53	-0.10066591850595945	-0.11861394336554834	0.11794856184146926
8.535	-0.015197832526634494	-0.11982868052244956	0.0440776628040732
8.540000000000001	-0.10921515818333821	-0.1125557630773291	-0.025461485313695284
8.545	-0.09792259309684515	-0.1844920529000424	0.10259643249692307
8.55	-0.08613644518177707	-0.13396971763629392	-0.018539984408592183
8.555	-0.07483623330465376	-0.14262780683381474	-0.01083560810408514
8.56	-0.0982540084855895	-0.12569977290549333	0.06024419545785722
8.565	-0.08835613927140154	-0.10749142944436282	0.04136094007560806
8.57	0.0189918189228111	-0.16609962353503863	0.1392651798575602
8.575000000000001	-0.12640787666265513	-0.16445064506884116	-0.058365995636908086
8.58	-0.1469445729721609	-0.12226382855394274	0.01674464048005312
8.585	-0.18399633409874605	-0.13595756474956283	0.046092714365765355
8.59	-0.0362240190329273	-0.191476310319372	0.018705612387459405
8.595	-0.045990497241708464	-0.01688582566399721	0.015395513407926142
8.6	-0.10268019408784226	-0.11223671325993523	-0.04777619841678003
8.605	-0.06662344184157948	-0.10263302154806442	-0.0814581439875798
8.61	-0.16845412770849982	-0.07783662253649792	0.014556147024857458
8.615	-0.11323528537302728	-0.10382957335314437	0.06301665180821246
8.620000000000001	-0.04357892383804805	-0.02555643340295978	0.14756805461445946
8.625	-0.0942358471630551	-0.15306941821738423	0.06370791069542399
8.63	-0.06789015911567611	-0.10809785000443878	-0.02486730195206365
8.635	-0.139359582782088	-0.15157835088539368	0.005836489254857719
8.64	-0.10359641020193308	-0.12111762195132167	-0.01697426251354667
8.645	-0.056735572906273866	-0.08508703461598437	-0.04956651658238998
8.65	-0.13707218164137372	-0.21545066273247399	0.06530507648958624
8.655	-0.14617009429814523	-0.11752209800347856	-0.09544500944264392
8.66	-0.022729037648433856	-0.1488024974263017	-0.008578429111154322
8.665000000000001	-0.18675784331120532	0.013427906951497662	-0.1374499521159563
8.67	-0.14638584597938875	-0.05848776451122452	-0.03968483507229652
8.675	-0.12138886643574011	-0.08496655882721536	-0.006686720511302575
8.68	-0.18530904270616833	-0.07141755038199195	-0.09637473436803219
8.685	-0.18244056392053729	-0.03501211470384231	-0.16278263219197323
8.69	-0.1113515942461938	-0.042046452199274435	-0.08992520053835927
8.695	-0.11519852946182384	-0.029709949683074804	-0.08978049588161227
8.700000000000001	-0.09070215234981271	-0.08190246600150597	-0.09328294919599545
8.705	-0.054084122869035064	-0.04235557540110212	-0.13673308126973288
8.71	-0.03206309911981772	-0.07881289412789139	-0.04703381988788326
8.715	-0.12447277847152353	-0.139344196802954	-0.0790551429908943
8.72	-0.15977681665185806	0.025717475307048904	0.06418435685335988
8.725	-0.04236360439032451	-0.037893560356478326	0.011891650249397166
8.73	-0.1655177835210407	0.05048876883155376	0.006117307410358087
8.735	-0.09740473808425458	-0.029927579089103488	-0.14932821984745814
8.74	-0.14612482330669418	-0.08369804255222124	0.062178971963243505
8.745000000000001	-0.13585405934248598	-0.1657939886300222	-0.10172772773672525
8.75	-0.1483523795186005	0.07123341380202952	-0.0424037900038565
8.755	-0.19327354274020941	-0.05737479094955045	0.06506536841847746
8.76	-0.1710738463735275	0.000695344534046502	-0.04234988909177353
8.765	-0.08985950291150901	-0.09997958244896993	-0.06961291576437853
8.77	-0.13643950293687546	-0.05952228644726601	-0.038909769770564664
8.775	-0.17898267629288303	0.0006765861685897601	-0.06338339875286278
